Wavenumber,Intensity
650.4205,0.110496
652.2841,0.107692
654.1478,0.110339
656.0115,0.111665
657.8751,0.110529
659.7388,0.112060
661.6025,0.113134
663.4661,0.109488
665.3298,0.106140
667.1935,0.105626
669.0571,0.108322
670.9208,0.107097
672.7845,0.106134
674.6481,0.104985
676.5118,0.104766
678.3755,0.104166
680.2392,0.102323
682.1028,0.101907
683.9665,0.102342
685.8302,0.103066
687.6938,0.102878
689.5575,0.100639
691.4212,0.099782
693.2848,0.099738
695.1485,0.098849
697.0122,0.097592
698.8758,0.097354
700.7395,0.097839
702.6032,0.097778
704.4669,0.096658
706.3305,0.094759
708.1942,0.092857
710.0579,0.091253
711.9215,0.090698
713.7852,0.090579
715.6489,0.089496
717.5125,0.088938
719.3762,0.088769
721.2399,0.087820
723.1035,0.087057
724.9672,0.086060
726.8309,0.084526
728.6945,0.083962
730.5582,0.083878
732.4219,0.083707
734.2856,0.084015
736.1492,0.084044
738.0129,0.083443
739.8766,0.083352
741.7402,0.083342
743.6039,0.083069
745.4676,0.082469
747.3312,0.081544
749.1949,0.081268
751.0586,0.081016
752.9222,0.080316
754.7859,0.079869
756.6496,0.079559
758.5132,0.079307
760.3769,0.079062
762.2406,0.078743
764.1043,0.078878
765.9679,0.079074
767.8316,0.078421
769.6953,0.077358
771.5589,0.076802
773.4226,0.076465
775.2863,0.076005
777.1499,0.075628
779.0136,0.075207
780.8773,0.074744
782.7409,0.074309
784.6046,0.073884
786.4683,0.073123
788.3320,0.072426
790.1956,0.072590
792.0593,0.072207
793.9230,0.071420
795.7866,0.071533
797.6503,0.071613
799.5140,0.071625
801.3776,0.071922
803.2413,0.071727
805.1050,0.071440
806.9686,0.071484
808.8323,0.071454
810.6960,0.071269
812.5596,0.071034
814.4233,0.070902
816.2870,0.070953
818.1507,0.070723
820.0143,0.069825
821.8780,0.068683
823.7417,0.067839
825.6053,0.067372
827.4690,0.067013
829.3327,0.066162
831.1963,0.065304
833.0600,0.064894
834.9237,0.064492
836.7873,0.063797
838.6510,0.063240
840.5147,0.062927
842.3784,0.062398
844.2420,0.061974
846.1057,0.062007
847.9694,0.062289
849.8330,0.062389
851.6967,0.062307
853.5604,0.062486
855.4240,0.062956
857.2877,0.063435
859.1514,0.063544
861.0150,0.063562
862.8787,0.063763
864.7424,0.064216
866.6060,0.064688
868.4697,0.065217
870.3334,0.065746
872.1971,0.066018
874.0607,0.066013
875.9244,0.065883
877.7881,0.065829
879.6517,0.065747
881.5154,0.065730
883.3791,0.065799
885.2427,0.065778
887.1064,0.065855
888.9701,0.065973
890.8337,0.066153
892.6974,0.066191
894.5611,0.066265
896.4247,0.066487
898.2884,0.066403
900.1521,0.066046
902.0158,0.065980
903.8794,0.066143
905.7431,0.066258
907.6068,0.066417
909.4704,0.066627
911.3341,0.067009
913.1978,0.067549
915.0614,0.068094
916.9251,0.068474
918.7888,0.068784
920.6524,0.069164
922.5161,0.069237
924.3798,0.069143
926.2435,0.069262
928.1071,0.069412
929.9708,0.069677
931.8345,0.070132
933.6981,0.070488
935.5618,0.070824
937.4255,0.071374
939.2891,0.072129
941.1528,0.072966
943.0165,0.073828
944.8801,0.074478
946.7438,0.075021
948.6075,0.075664
950.4711,0.076428
952.3348,0.077201
954.1985,0.078093
956.0622,0.079150
957.9258,0.080431
959.7895,0.081959
961.6532,0.083643
963.5168,0.085012
965.3805,0.085965
967.2442,0.086641
969.1078,0.086864
970.9715,0.086659
972.8352,0.086531
974.6988,0.086753
976.5625,0.087293
978.4262,0.088177
980.2899,0.089319
982.1535,0.090413
984.0172,0.091588
985.8809,0.092986
987.7445,0.094428
989.6082,0.095840
991.4719,0.097300
993.3355,0.098827
995.1992,0.100319
997.0629,0.101657
998.9265,0.102877
1000.7902,0.104091
1002.6539,0.105500
1004.5175,0.107132
1006.3812,0.108958
1008.2449,0.111010
1010.1086,0.113271
1011.9722,0.115561
1013.8359,0.117731
1015.6996,0.119745
1017.5632,0.121490
1019.4269,0.122718
1021.2906,0.123659
1023.1542,0.124419
1025.0179,0.125024
1026.8816,0.125684
1028.7452,0.126334
1030.6089,0.126753
1032.4726,0.126994
1034.3362,0.127112
1036.1999,0.126957
1038.0636,0.126641
1039.9273,0.126268
1041.7909,0.125722
1043.6546,0.125074
1045.5183,0.124464
1047.3819,0.123949
1049.2456,0.123478
1051.1093,0.123132
1052.9729,0.122881
1054.8366,0.122551
1056.7003,0.122247
1058.5639,0.122002
1060.4276,0.121657
1062.2913,0.121419
1064.1550,0.121314
1066.0186,0.121133
1067.8823,0.120839
1069.7460,0.120366
1071.6096,0.119510
1073.4733,0.118453
1075.3370,0.117079
1077.2006,0.115285
1079.0643,0.113065
1080.9280,0.110538
1082.7916,0.107952
1084.6553,0.105426
1086.5190,0.102940
1088.3826,0.100699
1090.2463,0.098738
1092.1100,0.096918
1093.9737,0.095334
1095.8373,0.093985
1097.7010,0.092741
1099.5647,0.091684
1101.4283,0.090793
1103.2920,0.090060
1105.1557,0.089455
1107.0193,0.089018
1108.8830,0.088627
1110.7467,0.088290
1112.6103,0.087951
1114.4740,0.087534
1116.3377,0.087035
1118.2014,0.086424
1120.0650,0.085765
1121.9287,0.085142
1123.7924,0.084457
1125.6560,0.083684
1127.5197,0.082919
1129.3834,0.082181
1131.2470,0.081295
1133.1107,0.080304
1134.9744,0.079423
1136.8380,0.078579
1138.7017,0.077737
1140.5654,0.077140
1142.4290,0.076718
1144.2927,0.076498
1146.1564,0.076474
1148.0201,0.076554
1149.8837,0.076786
1151.7474,0.077050
1153.6111,0.077146
1155.4747,0.077083
1157.3384,0.076884
1159.2021,0.076656
1161.0657,0.076349
1162.9294,0.075904
1164.7931,0.075323
1166.6567,0.074527
1168.5204,0.073464
1170.3841,0.072153
1172.2477,0.070525
1174.1114,0.068749
1175.9751,0.067155
1177.8388,0.065900
1179.7024,0.065004
1181.5661,0.064425
1183.4298,0.064211
1185.2934,0.064493
1187.1571,0.065085
1189.0208,0.065770
1190.8844,0.066670
1192.7481,0.067724
1194.6118,0.068757
1196.4754,0.069860
1198.3391,0.071116
1200.2028,0.072389
1202.0665,0.073595
1203.9301,0.074706
1205.7938,0.075715
1207.6575,0.076631
1209.5211,0.077509
1211.3848,0.078371
1213.2485,0.079136
1215.1121,0.079885
1216.9758,0.080748
1218.8395,0.081587
1220.7031,0.082332
1222.5668,0.083009
1224.4305,0.083612
1226.2941,0.084079
1228.1578,0.084450
1230.0215,0.084733
1231.8852,0.084835
1233.7488,0.084723
1235.6125,0.084454
1237.4762,0.084144
1239.3398,0.083788
1241.2035,0.083409
1243.0672,0.082970
1244.9308,0.082375
1246.7945,0.081728
1248.6582,0.081108
1250.5218,0.080412
1252.3855,0.079707
1254.2492,0.079117
1256.1129,0.078578
1257.9765,0.077994
1259.8402,0.077499
1261.7039,0.077077
1263.5675,0.076783
1265.4312,0.076424
1267.2949,0.076036
1269.1585,0.075785
1271.0222,0.075623
1272.8859,0.075459
1274.7495,0.075257
1276.6132,0.075101
1278.4769,0.075092
1280.3405,0.075066
1282.2042,0.075012
1284.0679,0.075012
1285.9316,0.074984
1287.7952,0.075182
1289.6589,0.075367
1291.5226,0.075386
1293.3862,0.075573
1295.2499,0.076005
1297.1136,0.076458
1298.9772,0.076782
1300.8409,0.077067
1302.7046,0.077243
1304.5682,0.077423
1306.4319,0.077669
1308.2956,0.077801
1310.1592,0.077857
1312.0229,0.077958
1313.8866,0.077824
1315.7503,0.077280
1317.6139,0.076928
1319.4776,0.076766
1321.3413,0.076389
1323.2049,0.075954
1325.0686,0.075565
1326.9323,0.075245
1328.7959,0.075202
1330.6596,0.075302
1332.5233,0.075314
1334.3869,0.075133
1336.2506,0.075154
1338.1143,0.075875
1339.9780,0.076843
1341.8416,0.076882
1343.7053,0.076465
1345.5690,0.076410
1347.4326,0.076508
1349.2963,0.076639
1351.1600,0.076863
1353.0236,0.077270
1354.8873,0.077931
1356.7510,0.078454
1358.6146,0.078746
1360.4783,0.079827
1362.3420,0.082293
1364.2056,0.084037
1366.0693,0.084500
1367.9330,0.085550
1369.7967,0.086469
1371.6603,0.086880
1373.5240,0.088216
1375.3877,0.089550
1377.2513,0.089479
1379.1150,0.089589
1380.9787,0.089659
1382.8423,0.089348
1384.7060,0.088949
1386.5697,0.089590
1388.4333,0.090125
1390.2970,0.088777
1392.1607,0.087568
1394.0244,0.087870
1395.8880,0.088276
1397.7517,0.087973
1399.6154,0.088055
1401.4790,0.086709
1403.3427,0.085704
1405.2064,0.085839
1407.0700,0.084978
1408.9337,0.083874
1410.7974,0.083285
1412.6610,0.082411
1414.5247,0.080921
1416.3884,0.079943
1418.2520,0.081597
1420.1157,0.083358
1421.9794,0.082157
1423.8431,0.081921
1425.7067,0.081901
1427.5704,0.081654
1429.4341,0.082967
1431.2977,0.083781
1433.1614,0.082995
1435.0251,0.083802
1436.8887,0.087668
1438.7524,0.087798
1440.6161,0.086308
1442.4797,0.085986
1444.3434,0.085438
1446.2071,0.085446
1448.0707,0.086137
1449.9344,0.085351
1451.7981,0.083372
1453.6618,0.081131
1455.5254,0.080867
1457.3891,0.084706
1459.2528,0.083248
1461.1164,0.079610
1462.9801,0.078252
1464.8438,0.079534
1466.7074,0.078582
1468.5711,0.075699
1470.4348,0.074180
1472.2984,0.076045
1474.1621,0.077180
1476.0258,0.076722
1477.8895,0.076502
1479.7531,0.076730
1481.6168,0.078095
1483.4805,0.078793
1485.3441,0.079389
1487.2078,0.082101
1489.0715,0.087348
1490.9351,0.091498
1492.7988,0.091186
1494.6625,0.092145
1496.5261,0.097478
1498.3898,0.101592
1500.2535,0.102611
1502.1171,0.101730
1503.9808,0.101101
1505.8445,0.106755
1507.7082,0.116435
1509.5718,0.115960
1511.4355,0.115226
1513.2992,0.115104
1515.1628,0.114773
1517.0265,0.115356
1518.8902,0.114801
1520.7538,0.115472
1522.6175,0.117476
1524.4812,0.116448
1526.3448,0.116758
1528.2085,0.116583
1530.0722,0.115270
1531.9359,0.114411
1533.7995,0.115295
1535.6632,0.113175
1537.5269,0.109955
1539.3905,0.110426
1541.2542,0.112608
1543.1179,0.111185
1544.9815,0.109042
1546.8452,0.106069
1548.7089,0.103245
1550.5725,0.100969
1552.4362,0.097666
1554.2999,0.093874
1556.1635,0.090289
1558.0272,0.089875
1559.8909,0.091868
1561.7546,0.088178
1563.6182,0.084659
1565.4819,0.082123
1567.3456,0.080065
1569.2092,0.079478
1571.0729,0.078208
1572.9366,0.075276
1574.8002,0.074568
1576.6639,0.076193
1578.5276,0.075115
1580.3912,0.073544
1582.2549,0.073191
1584.1186,0.073268
1585.9822,0.073619
1587.8459,0.074114
1589.7096,0.075025
1591.5733,0.076176
1593.4369,0.077567
1595.3006,0.079294
1597.1643,0.081069
1599.0279,0.082757
1600.8916,0.084943
1602.7553,0.087571
1604.6189,0.090168
1606.4826,0.092974
1608.3463,0.096606
1610.2099,0.099858
1612.0736,0.101694
1613.9373,0.103264
1615.8010,0.107874
1617.6646,0.113869
1619.5283,0.114717
1621.3920,0.115482
1623.2556,0.119370
1625.1193,0.122039
1626.9830,0.123190
1628.8466,0.125138
1630.7103,0.124881
1632.5740,0.123240
1634.4376,0.123426
1636.3013,0.126084
1638.1650,0.125066
1640.0286,0.122205
1641.8923,0.119397
1643.7560,0.116317
1645.6197,0.114290
1647.4833,0.113108
1649.3470,0.109744
1651.2107,0.105556
1653.0743,0.104982
1654.9380,0.104200
1656.8017,0.100393
1658.6653,0.096490
1660.5290,0.092774
1662.3927,0.089518
1664.2563,0.086567
1666.1200,0.082865
1667.9837,0.079461
1669.8474,0.076704
1671.7110,0.073890
1673.5747,0.070746
1675.4384,0.068103
1677.3020,0.065179
1679.1657,0.061686
1681.0294,0.058005
1682.8930,0.055085
1684.7567,0.053326
1686.6204,0.050501
1688.4840,0.047319
1690.3477,0.044290
1692.2114,0.040877
1694.0750,0.037523
1695.9387,0.034038
1697.8024,0.030936
1699.6661,0.028253
1701.5297,0.026105
1703.3934,0.023920
1705.2571,0.022046
1707.1207,0.020671
1708.9844,0.019508
1710.8481,0.018238
1712.7117,0.017150
1714.5754,0.016469
1716.4391,0.016358
1718.3027,0.016211
1720.1664,0.015600
1722.0301,0.014878
1723.8937,0.014589
1725.7574,0.014224
1727.6211,0.013693
1729.4848,0.013122
1731.3484,0.012719
1733.2121,0.012876
1735.0758,0.013449
1736.9394,0.012957
1738.8031,0.012606
1740.6668,0.012489
1742.5304,0.012349
1744.3941,0.011998
1746.2578,0.011629
1748.1214,0.011376
1749.9851,0.011445
1751.8488,0.011338
1753.7125,0.010982
1755.5761,0.010519
1757.4398,0.010407
1759.3035,0.010127
1761.1671,0.010130
1763.0308,0.010252
1764.8945,0.009928
1766.7581,0.009589
1768.6218,0.009482
1770.4855,0.009392
1772.3491,0.009806
1774.2128,0.009966
1776.0765,0.009724
1777.9401,0.009610
1779.8038,0.009729
1781.6675,0.009609
1783.5312,0.009551
1785.3948,0.009563
1787.2585,0.009367
1789.1222,0.009200
1790.9858,0.009416
1792.8495,0.009699
1794.7132,0.009678
1796.5768,0.009288
1798.4405,0.009087
1800.3042,0.009399
1802.1678,0.009742
1804.0315,0.009836
1805.8952,0.009741
1807.7589,0.009488
1809.6225,0.009309
1811.4862,0.009181
1813.3499,0.009153
1815.2135,0.008908
1817.0772,0.008928
1818.9409,0.009181
1820.8045,0.009593
1822.6682,0.009802
1824.5319,0.009639
1826.3955,0.009239
1828.2592,0.009237
1830.1229,0.009703
1831.9865,0.009816
1833.8502,0.009491
1835.7139,0.009400
1837.5776,0.009372
1839.4412,0.009155
1841.3049,0.008923
1843.1686,0.009393
1845.0322,0.009877
1846.8959,0.009785
1848.7596,0.009516
1850.6232,0.009294
1852.4869,0.009362
1854.3506,0.009710
1856.2142,0.009785
1858.0779,0.009584
1859.9416,0.009491
1861.8052,0.009537
1863.6689,0.009476
1865.5326,0.009380
1867.3963,0.009560
1869.2599,0.010350
1871.1236,0.010171
1872.9873,0.009692
1874.8509,0.009761
1876.7146,0.009508
1878.5783,0.009542
1880.4419,0.009932
1882.3056,0.009802
1884.1693,0.009754
1886.0329,0.009884
1887.8966,0.009608
1889.7603,0.009713
1891.6240,0.009888
1893.4876,0.009676
1895.3513,0.009546
1897.2150,0.009565
1899.0786,0.009850
1900.9423,0.009892
1902.8060,0.009811
1904.6696,0.010244
1906.5333,0.010045
1908.3970,0.009635
1910.2606,0.009901
1912.1243,0.009957
1913.9880,0.009597
1915.8516,0.009761
1917.7153,0.009524
1919.5790,0.008910
1921.4427,0.009372
1923.3063,0.009774
1925.1700,0.009553
1927.0337,0.009846
1928.8973,0.010191
1930.7610,0.009980
1932.6247,0.009256
1934.4883,0.009319
1936.3520,0.009868
1938.2157,0.009792
1940.0793,0.009343
1941.9430,0.008907
1943.8067,0.008460
1945.6704,0.008829
1947.5340,0.009521
1949.3977,0.009528
1951.2614,0.008974
1953.1250,0.007850
1954.9887,0.007949
1956.8524,0.008988
1958.7160,0.009491
1960.5797,0.009610
1962.4434,0.008439
1964.3070,0.007553
1966.1707,0.008982
1968.0344,0.009729
1969.8980,0.009076
1971.7617,0.008265
1973.6254,0.007308
1975.4891,0.008703
1977.3527,0.011127
1979.2164,0.011869
1981.0801,0.011690
1982.9437,0.012236
1984.8074,0.011834
1986.6711,0.011012
1988.5347,0.011273
1990.3984,0.011027
1992.2621,0.010514
1994.1257,0.010645
1995.9894,0.010880
1997.8531,0.010116
1999.7167,0.009038
2001.5804,0.009395
2003.4441,0.009784
2005.3078,0.010112
2007.1714,0.011373
2009.0351,0.011672
2010.8988,0.011760
2012.7624,0.011133
2014.6261,0.009350
2016.4898,0.009499
2018.3534,0.011583
2020.2171,0.012287
2022.0808,0.011407
2023.9444,0.010586
2025.8081,0.011208
2027.6718,0.011788
2029.5355,0.011847
2031.3991,0.011876
2033.2628,0.011931
2035.1265,0.012713
2036.9901,0.013383
2038.8538,0.013813
2040.7175,0.014504
2042.5811,0.014939
2044.4448,0.015658
2046.3085,0.015461
2048.1721,0.015768
2050.0358,0.016572
2051.8995,0.015515
2053.7631,0.015377
2055.6268,0.015872
2057.4905,0.015834
2059.3542,0.015827
2061.2178,0.015210
2063.0815,0.014768
2064.9452,0.014613
2066.8088,0.014281
2068.6725,0.014485
2070.5362,0.015159
2072.3998,0.015305
2074.2635,0.015003
2076.1272,0.015075
2077.9908,0.015376
2079.8545,0.014937
2081.7182,0.014155
2083.5819,0.013650
2085.4455,0.013727
2087.3092,0.013874
2089.1729,0.013732
2091.0365,0.013586
2092.9002,0.013199
2094.7639,0.012898
2096.6275,0.013300
2098.4912,0.013951
2100.3549,0.014299
2102.2185,0.014063
2104.0822,0.014154
2105.9459,0.014009
2107.8095,0.013511
2109.6732,0.013621
2111.5369,0.014088
2113.4006,0.014221
2115.2642,0.014041
2117.1279,0.013545
2118.9916,0.012980
2120.8552,0.012759
2122.7189,0.012421
2124.5826,0.011787
2126.4462,0.011401
2128.3099,0.011307
2130.1736,0.011421
2132.0372,0.011132
2133.9009,0.010953
2135.7646,0.011169
2137.6282,0.011462
2139.4919,0.011741
2141.3556,0.011134
2143.2193,0.010690
2145.0829,0.011337
2146.9466,0.011666
2148.8103,0.011405
2150.6739,0.011276
2152.5376,0.010971
2154.4013,0.010696
2156.2649,0.010740
2158.1286,0.011613
2159.9923,0.013490
2161.8559,0.015142
2163.7196,0.015129
2165.5833,0.014994
2167.4470,0.015196
2169.3106,0.015022
2171.1743,0.014052
2173.0380,0.013615
2174.9016,0.013690
2176.7653,0.013058
2178.6290,0.013236
2180.4926,0.014143
2182.3563,0.014938
2184.2200,0.014721
2186.0836,0.014542
2187.9473,0.015039
2189.8110,0.014679
2191.6746,0.014482
2193.5383,0.014943
2195.4020,0.014798
2197.2657,0.014411
2199.1293,0.014233
2200.9930,0.014617
2202.8567,0.015040
2204.7203,0.014891
2206.5840,0.013967
2208.4477,0.013334
2210.3113,0.013749
2212.1750,0.014521
2214.0387,0.014721
2215.9023,0.014335
2217.7660,0.014719
2219.6297,0.014929
2221.4934,0.014806
2223.3570,0.015044
2225.2207,0.015068
2227.0844,0.015312
2228.9480,0.014887
2230.8117,0.014163
2232.6754,0.014349
2234.5390,0.014528
2236.4027,0.014539
2238.2664,0.015024
2240.1300,0.015650
2241.9937,0.015865
2243.8574,0.015481
2245.7210,0.015391
2247.5847,0.015987
2249.4484,0.015879
2251.3121,0.015029
2253.1757,0.014763
2255.0394,0.015306
2256.9031,0.015851
2258.7667,0.015803
2260.6304,0.015702
2262.4941,0.015701
2264.3577,0.015618
2266.2214,0.015988
2268.0851,0.016625
2269.9487,0.016688
2271.8124,0.016643
2273.6761,0.016524
2275.5397,0.016289
2277.4034,0.016595
2279.2671,0.017051
2281.1308,0.017301
2282.9944,0.017317
2284.8581,0.017351
2286.7218,0.017367
2288.5854,0.017306
2290.4491,0.016920
2292.3128,0.016314
2294.1764,0.016279
2296.0401,0.016582
2297.9038,0.016746
2299.7674,0.016403
2301.6311,0.015906
2303.4948,0.015883
2305.3585,0.015913
2307.2221,0.016010
2309.0858,0.016382
2310.9495,0.016673
2312.8131,0.016712
2314.6768,0.016739
2316.5405,0.016776
2318.4041,0.017108
2320.2678,0.017869
2322.1315,0.018415
2323.9951,0.018199
2325.8588,0.016960
2327.7225,0.015693
2329.5861,0.015359
2331.4498,0.015808
2333.3135,0.016223
2335.1772,0.016110
2337.0408,0.016188
2338.9045,0.016822
2340.7682,0.017841
2342.6318,0.018366
2344.4955,0.018073
2346.3592,0.017260
2348.2228,0.015810
2350.0865,0.014465
2351.9502,0.014340
2353.8138,0.015357
2355.6775,0.016543
2357.5412,0.017229
2359.4049,0.017066
2361.2685,0.017107
2363.1322,0.017646
2364.9959,0.017784
2366.8595,0.017954
2368.7232,0.018493
2370.5869,0.018519
2372.4505,0.018258
2374.3142,0.018408
2376.1779,0.018197
2378.0415,0.017725
2379.9052,0.017501
2381.7689,0.017077
2383.6325,0.016611
2385.4962,0.016442
2387.3599,0.016462
2389.2236,0.016443
2391.0872,0.016411
2392.9509,0.016473
2394.8146,0.016739
2396.6782,0.016948
2398.5419,0.016674
2400.4056,0.016413
2402.2692,0.016433
2404.1329,0.016787
2405.9966,0.017261
2407.8602,0.017552
2409.7239,0.017688
2411.5876,0.017487
2413.4512,0.017245
2415.3149,0.017365
2417.1786,0.017686
2419.0423,0.017725
2420.9059,0.017394
2422.7696,0.017272
2424.6333,0.017460
2426.4969,0.017531
2428.3606,0.017403
2430.2243,0.017456
2432.0879,0.017625
2433.9516,0.017788
2435.8153,0.017914
2437.6789,0.017974
2439.5426,0.018184
2441.4063,0.018319
2443.2700,0.018251
2445.1336,0.018251
2446.9973,0.018366
2448.8610,0.018307
2450.7246,0.018171
2452.5883,0.018404
2454.4520,0.018694
2456.3156,0.018835
2458.1793,0.018834
2460.0430,0.018792
2461.9066,0.018641
2463.7703,0.018507
2465.6340,0.018612
2467.4976,0.018684
2469.3613,0.018586
2471.2250,0.018840
2473.0887,0.019075
2474.9523,0.018791
2476.8160,0.018885
2478.6797,0.019148
2480.5433,0.019189
2482.4070,0.019377
2484.2707,0.019569
2486.1343,0.019524
2487.9980,0.019414
2489.8617,0.019490
2491.7253,0.019554
2493.5890,0.019529
2495.4527,0.019470
2497.3164,0.019502
2499.1800,0.019533
2501.0437,0.019630
2502.9074,0.019576
2504.7710,0.019711
2506.6347,0.020063
2508.4984,0.020216
2510.3620,0.020172
2512.2257,0.020017
2514.0894,0.020054
2515.9530,0.020032
2517.8167,0.019863
2519.6804,0.019984
2521.5440,0.020293
2523.4077,0.020455
2525.2714,0.020452
2527.1351,0.020297
2528.9987,0.020216
2530.8624,0.020325
2532.7261,0.020336
2534.5897,0.020305
2536.4534,0.020466
2538.3171,0.020699
2540.1807,0.020734
2542.0444,0.020587
2543.9081,0.020456
2545.7717,0.020597
2547.6354,0.020828
2549.4991,0.021015
2551.3627,0.021161
2553.2264,0.021351
2555.0901,0.021534
2556.9538,0.021714
2558.8174,0.021633
2560.6811,0.021482
2562.5448,0.021426
2564.4084,0.021691
2566.2721,0.021841
2568.1358,0.021880
2569.9994,0.021930
2571.8631,0.021973
2573.7268,0.022086
2575.5904,0.021814
2577.4541,0.021645
2579.3178,0.022008
2581.1815,0.022310
2583.0451,0.022485
2584.9088,0.022796
2586.7725,0.023016
2588.6361,0.022824
2590.4998,0.022894
2592.3635,0.023447
2594.2271,0.023476
2596.0908,0.023155
2597.9545,0.023178
2599.8181,0.023564
2601.6818,0.023873
2603.5455,0.023934
2605.4091,0.023833
2607.2728,0.023963
2609.1365,0.024261
2611.0002,0.024266
2612.8638,0.024141
2614.7275,0.023883
2616.5912,0.024032
2618.4548,0.024498
2620.3185,0.024697
2622.1822,0.024676
2624.0458,0.024810
2625.9095,0.025112
2627.7732,0.025253
2629.6368,0.025163
2631.5005,0.025168
2633.3642,0.025336
2635.2279,0.025446
2637.0915,0.025635
2638.9552,0.025666
2640.8189,0.025702
2642.6825,0.025988
2644.5462,0.026048
2646.4099,0.025969
2648.2735,0.026220
2650.1372,0.026254
2652.0009,0.026152
2653.8645,0.026195
2655.7282,0.026070
2657.5919,0.026059
2659.4555,0.026096
2661.3192,0.025980
2663.1829,0.025809
2665.0466,0.025764
2666.9102,0.025713
2668.7739,0.025696
2670.6376,0.025921
2672.5012,0.026197
2674.3649,0.026324
2676.2286,0.026296
2678.0922,0.026271
2679.9559,0.026317
2681.8196,0.026327
2683.6832,0.026486
2685.5469,0.026683
2687.4106,0.026702
2689.2742,0.026801
2691.1379,0.026928
2693.0016,0.027019
2694.8653,0.027085
2696.7289,0.027032
2698.5926,0.027106
2700.4563,0.027140
2702.3199,0.027356
2704.1836,0.027511
2706.0473,0.027678
2707.9109,0.027953
2709.7746,0.027967
2711.6383,0.027869
2713.5019,0.027950
2715.3656,0.028114
2717.2293,0.028224
2719.0930,0.028332
2720.9566,0.028459
2722.8203,0.028679
2724.6840,0.028888
2726.5476,0.028807
2728.4113,0.028856
2730.2750,0.029073
2732.1386,0.029196
2734.0023,0.029268
2735.8660,0.029405
2737.7296,0.029437
2739.5933,0.029606
2741.4570,0.029909
2743.3206,0.030037
2745.1843,0.030052
2747.0480,0.030233
2748.9117,0.030459
2750.7753,0.030318
2752.6390,0.030208
2754.5027,0.030488
2756.3663,0.030698
2758.2300,0.030744
2760.0937,0.030820
2761.9573,0.031112
2763.8210,0.031285
2765.6847,0.031352
2767.5483,0.031568
2769.4120,0.031812
2771.2757,0.031947
2773.1394,0.032011
2775.0030,0.032193
2776.8667,0.032299
2778.7304,0.032414
2780.5940,0.032525
2782.4577,0.032725
2784.3214,0.032810
2786.1850,0.032878
2788.0487,0.033286
2789.9124,0.033626
2791.7760,0.033522
2793.6397,0.033283
2795.5034,0.033423
2797.3670,0.033618
2799.2307,0.033963
2801.0944,0.034286
2802.9581,0.034463
2804.8217,0.034638
2806.6854,0.034844
2808.5491,0.034914
2810.4127,0.035034
2812.2764,0.035266
2814.1401,0.035512
2816.0037,0.035576
2817.8674,0.035755
2819.7311,0.036171
2821.5947,0.036311
2823.4584,0.036480
2825.3221,0.036836
2827.1857,0.037022
2829.0494,0.037201
2830.9131,0.037384
2832.7768,0.037805
2834.6404,0.038051
2836.5041,0.038250
2838.3678,0.038655
2840.2314,0.039138
2842.0951,0.039613
2843.9588,0.040064
2845.8224,0.040441
2847.6861,0.041025
2849.5498,0.041668
2851.4134,0.041964
2853.2771,0.042241
2855.1408,0.042597
2857.0045,0.042745
2858.8681,0.042764
2860.7318,0.042847
2862.5955,0.043169
2864.4591,0.043760
2866.3228,0.044254
2868.1865,0.044493
2870.0501,0.044717
2871.9138,0.044782
2873.7775,0.044897
2875.6411,0.044832
2877.5048,0.044929
2879.3685,0.044923
2881.2321,0.044826
2883.0958,0.044770
2884.9595,0.045012
2886.8232,0.045155
2888.6868,0.045185
2890.5505,0.045201
2892.4142,0.045264
2894.2778,0.045414
2896.1415,0.045661
2898.0052,0.045942
2899.8688,0.046207
2901.7325,0.046290
2903.5962,0.046713
2905.4598,0.047037
2907.3235,0.047396
2909.1872,0.047769
2911.0509,0.048055
2912.9145,0.048326
2914.7782,0.048843
2916.6419,0.049455
2918.5055,0.049683
2920.3692,0.049763
2922.2329,0.050177
2924.0965,0.050302
2925.9602,0.050802
2927.8239,0.051056
2929.6875,0.050724
2931.5512,0.050423
2933.4149,0.050092
2935.2785,0.049501
2937.1422,0.049024
2939.0059,0.048779
2940.8696,0.048643
2942.7332,0.048212
2944.5969,0.047755
2946.4606,0.047353
2948.3242,0.047455
2950.1879,0.047567
2952.0516,0.047595
2953.9152,0.047789
2955.7789,0.047836
2957.6426,0.047656
2959.5062,0.047629
2961.3699,0.047455
2963.2336,0.047078
2965.0972,0.046639
2966.9609,0.046265
2968.8246,0.045778
2970.6883,0.045564
2972.5519,0.045039
2974.4156,0.044373
2976.2793,0.043789
2978.1429,0.043399
2980.0066,0.042980
2981.8703,0.042437
2983.7339,0.041835
2985.5976,0.041363
2987.4613,0.041219
2989.3249,0.041048
2991.1886,0.040688
2993.0523,0.040426
2994.9160,0.040117
2996.7796,0.039944
2998.6433,0.040014
3000.5070,0.040214
3002.3706,0.040414
3004.2343,0.040485
3006.0980,0.040510
3007.9616,0.040715
3009.8253,0.041055
3011.6890,0.041364
3013.5526,0.041084
3015.4163,0.041032
3017.2800,0.041370
3019.1436,0.041633
3021.0073,0.041630
3022.8710,0.041937
3024.7347,0.042258
3026.5983,0.042520
3028.4620,0.042695
3030.3257,0.043154
3032.1893,0.043577
3034.0530,0.043923
3035.9167,0.044271
3037.7803,0.044568
3039.6440,0.044748
3041.5077,0.045121
3043.3713,0.044870
3045.2350,0.044778
3047.0987,0.045347
3048.9624,0.045748
3050.8260,0.045900
3052.6897,0.045883
3054.5534,0.045906
3056.4170,0.046049
3058.2807,0.046161
3060.1444,0.046493
3062.0080,0.046792
3063.8717,0.047084
3065.7354,0.047158
3067.5990,0.047042
3069.4627,0.046896
3071.3264,0.047090
3073.1900,0.047026
3075.0537,0.046943
3076.9174,0.046975
3078.7811,0.046935
3080.6447,0.046942
3082.5084,0.046653
3084.3721,0.046421
3086.2357,0.046735
3088.0994,0.046893
3089.9631,0.046601
3091.8267,0.046269
3093.6904,0.046147
3095.5541,0.046290
3097.4177,0.046735
3099.2814,0.046704
3101.1451,0.046498
3103.0087,0.046457
3104.8724,0.046753
3106.7361,0.046547
3108.5998,0.046604
3110.4634,0.046928
3112.3271,0.047081
3114.1908,0.047387
3116.0544,0.047241
3117.9181,0.046835
3119.7818,0.047017
3121.6454,0.046831
3123.5091,0.046935
3125.3728,0.047727
3127.2364,0.048225
3129.1001,0.048480
3130.9638,0.048594
3132.8275,0.048659
3134.6911,0.048968
3136.5548,0.049242
3138.4185,0.049438
3140.2821,0.049465
3142.1458,0.050040
3144.0095,0.050500
3145.8731,0.050890
3147.7368,0.051388
3149.6005,0.051588
3151.4641,0.051417
3153.3278,0.051563
3155.1915,0.051974
3157.0551,0.052740
3158.9188,0.053116
3160.7825,0.053229
3162.6462,0.053572
3164.5098,0.054078
3166.3735,0.054411
3168.2372,0.055072
3170.1008,0.055356
3171.9645,0.055484
3173.8282,0.055572
3175.6918,0.055694
3177.5555,0.056126
3179.4192,0.056969
3181.2828,0.057232
3183.1465,0.057583
3185.0102,0.057656
3186.8739,0.057306
3188.7375,0.057487
3190.6012,0.058319
3192.4649,0.058477
3194.3285,0.058198
3196.1922,0.058352
3198.0559,0.059186
3199.9195,0.059745
3201.7832,0.059751
3203.6469,0.059650
3205.5105,0.059903
3207.3742,0.059763
3209.2379,0.059998
3211.1015,0.060267
3212.9652,0.060561
3214.8289,0.061099
3216.6926,0.061761
3218.5562,0.061408
3220.4199,0.061121
3222.2836,0.061462
3224.1472,0.061729
3226.0109,0.061941
3227.8746,0.062317
3229.7382,0.062361
3231.6019,0.062554
3233.4656,0.062744
3235.3292,0.062708
3237.1929,0.062646
3239.0566,0.063064
3240.9202,0.063482
3242.7839,0.064151
3244.6476,0.064707
3246.5113,0.064791
3248.3749,0.064480
3250.2386,0.064964
3252.1023,0.065431
3253.9659,0.065521
3255.8296,0.065503
3257.6933,0.065949
3259.5569,0.066296
3261.4206,0.066392
3263.2843,0.066352
3265.1479,0.066487
3267.0116,0.066527
3268.8753,0.066769
3270.7390,0.066670
3272.6026,0.066338
3274.4663,0.066210
3276.3300,0.066322
3278.1936,0.066278
3280.0573,0.066484
3281.9210,0.066405
3283.7846,0.066208
3285.6483,0.066195
3287.5120,0.066296
3289.3756,0.065695
3291.2393,0.064801
3293.1030,0.064270
3294.9666,0.063803
3296.8303,0.063388
3298.6940,0.063441
3300.5577,0.063512
3302.4213,0.063039
3304.2850,0.062298
3306.1487,0.061743
3308.0123,0.061058
3309.8760,0.060768
3311.7397,0.060515
3313.6033,0.059736
3315.4670,0.058999
3317.3307,0.059192
3319.1943,0.058871
3321.0580,0.058159
3322.9217,0.057639
3324.7854,0.057381
3326.6490,0.057040
3328.5127,0.056571
3330.3764,0.056238
3332.2400,0.056174
3334.1037,0.055492
3335.9674,0.054724
3337.8310,0.054403
3339.6947,0.054122
3341.5584,0.053918
3343.4220,0.053958
3345.2857,0.053973
3347.1494,0.053657
3349.0130,0.053193
3350.8767,0.052616
3352.7404,0.052137
3354.6041,0.052195
3356.4677,0.052185
3358.3314,0.051497
3360.1951,0.050836
3362.0587,0.050575
3363.9224,0.049682
3365.7861,0.049256
3367.6497,0.049327
3369.5134,0.049026
3371.3771,0.048409
3373.2407,0.048160
3375.1044,0.048220
3376.9681,0.048115
3378.8317,0.047598
3380.6954,0.047477
3382.5591,0.047350
3384.4228,0.046777
3386.2864,0.046094
3388.1501,0.045878
3390.0138,0.045963
3391.8774,0.045953
3393.7411,0.045397
3395.6048,0.044928
3397.4684,0.044675
3399.3321,0.044424
3401.1958,0.044263
3403.0594,0.043980
3404.9231,0.043528
3406.7868,0.043476
3408.6505,0.043336
3410.5141,0.042915
3412.3778,0.042445
3414.2415,0.041943
3416.1051,0.041620
3417.9688,0.041431
3419.8325,0.041043
3421.6961,0.040567
3423.5598,0.040004
3425.4235,0.039957
3427.2871,0.039487
3429.1508,0.039525
3431.0145,0.039400
3432.8781,0.038425
3434.7418,0.037762
3436.6055,0.037560
3438.4692,0.037636
3440.3328,0.037639
3442.1965,0.036958
3444.0602,0.036530
3445.9238,0.036157
3447.7875,0.035816
3449.6512,0.035863
3451.5148,0.035718
3453.3785,0.035541
3455.2422,0.035417
3457.1058,0.034801
3458.9695,0.033622
3460.8332,0.033437
3462.6969,0.034041
3464.5605,0.033668
3466.4242,0.033328
3468.2879,0.032960
3470.1515,0.031804
3472.0152,0.031560
3473.8789,0.032085
3475.7425,0.032089
3477.6062,0.031600
3479.4699,0.030835
3481.3335,0.030278
3483.1972,0.029743
3485.0609,0.029334
3486.9245,0.029479
3488.7882,0.029360
3490.6519,0.028858
3492.5156,0.028584
3494.3792,0.028451
3496.2429,0.027820
3498.1066,0.027596
3499.9702,0.027220
3501.8339,0.026684
3503.6976,0.026481
3505.5612,0.026571
3507.4249,0.026083
3509.2886,0.025127
3511.1522,0.024959
3513.0159,0.024462
3514.8796,0.023553
3516.7432,0.023104
3518.6069,0.023559
3520.4706,0.023481
3522.3343,0.022557
3524.1979,0.022419
3526.0616,0.022786
3527.9253,0.022036
3529.7889,0.020540
3531.6526,0.020532
3533.5163,0.021247
3535.3799,0.021097
3537.2436,0.020627
3539.1073,0.019925
3540.9709,0.019210
3542.8346,0.018764
3544.6983,0.019313
3546.5620,0.018952
3548.4256,0.018158
3550.2893,0.017872
3552.1530,0.017098
3554.0166,0.016575
3555.8803,0.016139
3557.7440,0.015713
3559.6076,0.015746
3561.4713,0.015327
3563.3350,0.014982
3565.1986,0.014742
3567.0623,0.014260
3568.9260,0.014337
3570.7896,0.014401
3572.6533,0.013713
3574.5170,0.013291
3576.3807,0.013337
3578.2443,0.012908
3580.1080,0.012371
3581.9717,0.012050
3583.8353,0.011322
3585.6990,0.010866
3587.5627,0.010998
3589.4263,0.010752
3591.2900,0.010392
3593.1537,0.010180
3595.0173,0.010376
3596.8810,0.010190
3598.7447,0.009547
3600.6084,0.009019
3602.4720,0.008656
3604.3357,0.008829
3606.1994,0.008342
3608.0630,0.007439
3609.9267,0.007171
3611.7904,0.007236
3613.6540,0.007084
3615.5177,0.006340
3617.3814,0.005918
3619.2450,0.006311
3621.1087,0.006850
3622.9724,0.006796
3624.8360,0.006266
3626.6997,0.005350
3628.5634,0.004819
3630.4271,0.004959
3632.2907,0.005327
3634.1544,0.005040
3636.0181,0.004830
3637.8817,0.005164
3639.7454,0.005064
3641.6091,0.004435
3643.4727,0.003971
3645.3364,0.003623
3647.2001,0.003281
3649.0637,0.003344
3650.9274,0.004049
3652.7911,0.003941
3654.6547,0.003067
3656.5184,0.002624
3658.3821,0.002842
3660.2458,0.003189
3662.1094,0.002964
3663.9731,0.002454
3665.8368,0.002441
3667.7004,0.002015
3669.5641,0.001430
3671.4278,0.002133
3673.2914,0.002335
3675.1551,0.001550
3677.0188,0.001600
3678.8824,0.002010
3680.7461,0.002011
3682.6098,0.001761
3684.4735,0.001286
3686.3371,0.000991
3688.2008,0.001277
3690.0645,0.001644
3691.9281,0.001538
3693.7918,0.001555
3695.6555,0.001527
3697.5191,0.001653
3699.3828,0.001763
3701.2465,0.001554
3703.1101,0.001640
3704.9738,0.001625
3706.8375,0.001388
3708.7011,0.001280
3710.5648,0.001016
3712.4285,0.001056
3714.2922,0.001451
3716.1558,0.001442
3718.0195,0.001486
3719.8832,0.001577
3721.7468,0.001229
3723.6105,0.000951
3725.4742,0.001221
3727.3378,0.001554
3729.2015,0.001624
3731.0652,0.001509
3732.9288,0.001477
3734.7925,0.001348
3736.6562,0.001327
3738.5199,0.001564
3740.3835,0.001445
3742.2472,0.001216
3744.1109,0.001020
3745.9745,0.001171
3747.8382,0.001324
3749.7019,0.001484
3751.5655,0.001901
3753.4292,0.001813
3755.2929,0.001542
3757.1565,0.001510
3759.0202,0.001712
3760.8839,0.001808
3762.7475,0.001965
3764.6112,0.002049
3766.4749,0.001573
3768.3386,0.001295
3770.2022,0.001809
3772.0659,0.002537
3773.9296,0.002732
3775.7932,0.002556
3777.6569,0.002509
3779.5206,0.002434
3781.3842,0.002315
3783.2479,0.002255
3785.1116,0.002149
3786.9752,0.001971
3788.8389,0.001903
3790.7026,0.001986
3792.5662,0.002010
3794.4299,0.002290
3796.2936,0.002514
3798.1573,0.002305
3800.0209,0.001987
3801.8846,0.002001
3803.7483,0.002133
3805.6119,0.001765
3807.4756,0.001723
3809.3393,0.002306
3811.2029,0.002539
3813.0666,0.002400
3814.9303,0.002256
3816.7939,0.002126
3818.6576,0.002103
3820.5213,0.001723
3822.3850,0.001564
3824.2486,0.002172
3826.1123,0.002206
3827.9760,0.002011
3829.8396,0.002170
3831.7033,0.002232
3833.5670,0.002112
3835.4306,0.001777
3837.2943,0.001562
3839.1580,0.001971
3841.0216,0.002267
3842.8853,0.002121
3844.7490,0.002015
3846.6126,0.002039
3848.4763,0.002073
3850.3400,0.001866
3852.2037,0.001484
3854.0673,0.001896
3855.9310,0.002744
3857.7947,0.002740
3859.6583,0.002088
3861.5220,0.001642
3863.3857,0.002141
3865.2493,0.002595
3867.1130,0.002517
3868.9767,0.002369
3870.8403,0.002264
3872.7040,0.002283
3874.5677,0.001949
3876.4314,0.001932
3878.2950,0.002560
3880.1587,0.002805
3882.0224,0.002779
3883.8860,0.002654
3885.7497,0.002270
3887.6134,0.002388
3889.4770,0.002464
3891.3407,0.002167
3893.2044,0.002156
3895.0680,0.001937
3896.9317,0.001850
3898.7954,0.002203
3900.6590,0.002596
3902.5227,0.002744
3904.3864,0.002935
3906.2501,0.003336
3908.1137,0.003134
3909.9774,0.002850
3911.8411,0.003025
3913.7047,0.002944
3915.5684,0.002505
3917.4321,0.002462
3919.2957,0.002696
3921.1594,0.002990
3923.0231,0.003137
3924.8867,0.002839
3926.7504,0.002809
3928.6141,0.002656
3930.4777,0.002517
3932.3414,0.003072
3934.2051,0.003194
3936.0688,0.003082
3937.9324,0.003097
3939.7961,0.002954
3941.6598,0.002821
3943.5234,0.002644
3945.3871,0.002827
3947.2508,0.003445
3949.1144,0.003473
3950.9781,0.003159
3952.8418,0.003236
3954.7054,0.003383
3956.5691,0.003407
3958.4328,0.003320
3960.2965,0.003052
3962.1601,0.003163
3964.0238,0.003447
3965.8875,0.003374
3967.7511,0.003181
3969.6148,0.003251
3971.4785,0.003449
3973.3421,0.003207
3975.2058,0.003035
3977.0695,0.003228
3978.9331,0.003314
3980.7968,0.003270
3982.6605,0.003045
3984.5241,0.002832
3986.3878,0.003028
3988.2515,0.003624
3990.1152,0.003817
3991.9788,0.003643
3993.8425,0.003463
3995.7062,0.003455
3997.5698,0.003591
3999.4335,0.003611
