Wavenumber,Intensity
650.4205,0.171376
652.2841,0.173979
654.1478,0.173656
656.0115,0.172878
657.8751,0.173231
659.7388,0.173209
661.6025,0.170753
663.4661,0.168416
665.3298,0.165591
667.1935,0.166094
669.0571,0.171952
670.9208,0.167265
672.7845,0.162129
674.6481,0.160961
676.5118,0.159200
678.3755,0.158090
680.2392,0.158865
682.1028,0.158359
683.9665,0.156737
685.8302,0.156306
687.6938,0.154965
689.5575,0.152730
691.4212,0.149625
693.2848,0.147616
695.1485,0.148006
697.0122,0.148649
698.8758,0.147716
700.7395,0.146498
702.6032,0.145383
704.4669,0.144119
706.3305,0.141419
708.1942,0.139557
710.0579,0.139635
711.9215,0.139042
713.7852,0.136432
715.6489,0.133803
717.5125,0.132374
719.3762,0.131532
721.2399,0.130142
723.1035,0.128093
724.9672,0.126589
726.8309,0.126486
728.6945,0.125276
730.5582,0.124031
732.4219,0.123318
734.2856,0.122044
736.1492,0.121138
738.0129,0.121066
739.8766,0.120812
741.7402,0.120629
743.6039,0.120217
745.4676,0.119449
747.3312,0.118088
749.1949,0.117060
751.0586,0.116463
752.9222,0.115642
754.7859,0.114089
756.6496,0.113375
758.5132,0.113519
760.3769,0.113518
762.2406,0.112696
764.1043,0.111965
765.9679,0.111192
767.8316,0.110663
769.6953,0.110349
771.5589,0.109393
773.4226,0.108047
775.2863,0.107115
777.1499,0.106755
779.0136,0.106360
780.8773,0.105312
782.7409,0.104410
784.6046,0.103481
786.4683,0.102351
788.3320,0.100794
790.1956,0.099676
792.0593,0.098669
793.9230,0.097702
795.7866,0.097151
797.6503,0.096762
799.5140,0.096191
801.3776,0.095786
803.2413,0.095593
805.1050,0.095122
806.9686,0.093943
808.8323,0.093061
810.6960,0.092657
812.5596,0.092695
814.4233,0.092702
816.2870,0.091991
818.1507,0.090861
820.0143,0.089693
821.8780,0.088184
823.7417,0.086525
825.6053,0.084851
827.4690,0.083676
829.3327,0.082583
831.1963,0.081308
833.0600,0.080012
834.9237,0.079173
836.7873,0.078241
838.6510,0.077004
840.5147,0.076070
842.3784,0.075278
844.2420,0.074558
846.1057,0.074190
847.9694,0.073729
849.8330,0.073373
851.6967,0.073411
853.5604,0.073352
855.4240,0.073302
857.2877,0.073606
859.1514,0.074029
861.0150,0.074686
862.8787,0.075462
864.7424,0.076417
866.6060,0.078337
868.4697,0.081370
870.3334,0.083798
872.1971,0.083037
874.0607,0.079695
875.9244,0.076502
877.7881,0.074213
879.6517,0.072862
881.5154,0.071527
883.3791,0.070255
885.2427,0.069360
887.1064,0.068524
888.9701,0.067970
890.8337,0.067971
892.6974,0.068019
894.5611,0.067723
896.4247,0.067518
898.2884,0.067532
900.1521,0.067238
902.0158,0.066818
903.8794,0.066376
905.7431,0.066189
907.6068,0.066430
909.4704,0.066711
911.3341,0.067101
913.1978,0.067699
915.0614,0.068444
916.9251,0.069263
918.7888,0.069774
920.6524,0.069992
922.5161,0.070291
924.3798,0.070552
926.2435,0.070647
928.1071,0.070879
929.9708,0.071389
931.8345,0.071896
933.6981,0.072234
935.5618,0.072668
937.4255,0.073594
939.2891,0.074894
941.1528,0.076077
943.0165,0.077311
944.8801,0.078450
946.7438,0.079314
948.6075,0.080033
950.4711,0.080621
952.3348,0.081041
954.1985,0.081788
956.0622,0.082989
957.9258,0.084699
959.7895,0.087050
961.6532,0.090051
963.5168,0.093129
965.3805,0.095675
967.2442,0.097560
969.1078,0.098859
970.9715,0.099474
972.8352,0.099860
974.6988,0.100651
976.5625,0.102045
978.4262,0.103799
980.2899,0.105547
982.1535,0.107077
984.0172,0.108117
985.8809,0.108407
987.7445,0.108442
989.6082,0.108708
991.4719,0.109307
993.3355,0.110285
995.1992,0.111511
997.0629,0.112872
998.9265,0.114391
1000.7902,0.115919
1002.6539,0.117369
1004.5175,0.118970
1006.3812,0.120904
1008.2449,0.123245
1010.1086,0.126239
1011.9722,0.129859
1013.8359,0.133762
1015.6996,0.137824
1017.5632,0.141821
1019.4269,0.145260
1021.2906,0.148030
1023.1542,0.150304
1025.0179,0.152126
1026.8816,0.153778
1028.7452,0.155404
1030.6089,0.156715
1032.4726,0.157435
1034.3362,0.157807
1036.1999,0.157805
1038.0636,0.157388
1039.9273,0.156736
1041.7909,0.155891
1043.6546,0.155047
1045.5183,0.154308
1047.3819,0.153664
1049.2456,0.153262
1051.1093,0.153097
1052.9729,0.152991
1054.8366,0.152777
1056.7003,0.152481
1058.5639,0.152133
1060.4276,0.151636
1062.2913,0.151063
1064.1550,0.150598
1066.0186,0.150375
1067.8823,0.150096
1069.7460,0.149604
1071.6096,0.148593
1073.4733,0.147078
1075.3370,0.145038
1077.2006,0.142256
1079.0643,0.138738
1080.9280,0.134446
1082.7916,0.129894
1084.6553,0.125518
1086.5190,0.121318
1088.3826,0.117430
1090.2463,0.114260
1092.1100,0.111716
1093.9737,0.109635
1095.8373,0.108034
1097.7010,0.106757
1099.5647,0.105870
1101.4283,0.105347
1103.2920,0.105160
1105.1557,0.105339
1107.0193,0.105858
1108.8830,0.106629
1110.7467,0.107438
1112.6103,0.108040
1114.4740,0.108372
1116.3377,0.108415
1118.2014,0.107984
1120.0650,0.107230
1121.9287,0.106365
1123.7924,0.105438
1125.6560,0.104484
1127.5197,0.103375
1129.3834,0.102036
1131.2470,0.100546
1133.1107,0.098782
1134.9744,0.096858
1136.8380,0.094814
1138.7017,0.092865
1140.5654,0.091363
1142.4290,0.090324
1144.2927,0.089561
1146.1564,0.089117
1148.0201,0.089067
1149.8837,0.089161
1151.7474,0.089357
1153.6111,0.089509
1155.4747,0.089333
1157.3384,0.089009
1159.2021,0.088591
1161.0657,0.088030
1162.9294,0.087342
1164.7931,0.086444
1166.6567,0.085263
1168.5204,0.083734
1170.3841,0.081879
1172.2477,0.079735
1174.1114,0.077314
1175.9751,0.075004
1177.8388,0.073211
1179.7024,0.072067
1181.5661,0.071523
1183.4298,0.071548
1185.2934,0.071955
1187.1571,0.072637
1189.0208,0.073648
1190.8844,0.074912
1192.7481,0.076323
1194.6118,0.077884
1196.4754,0.079576
1198.3391,0.081250
1200.2028,0.083003
1202.0665,0.084766
1203.9301,0.086333
1205.7938,0.087523
1207.6575,0.088480
1209.5211,0.089268
1211.3848,0.089987
1213.2485,0.090770
1215.1121,0.091594
1216.9758,0.092441
1218.8395,0.093354
1220.7031,0.094377
1222.5668,0.095221
1224.4305,0.095987
1226.2941,0.096794
1228.1578,0.097464
1230.0215,0.097896
1231.8852,0.098140
1233.7488,0.098235
1235.6125,0.098196
1237.4762,0.098049
1239.3398,0.097696
1241.2035,0.097102
1243.0672,0.096381
1244.9308,0.095432
1246.7945,0.094313
1248.6582,0.093214
1250.5218,0.092076
1252.3855,0.091060
1254.2492,0.089951
1256.1129,0.088822
1257.9765,0.087929
1259.8402,0.087165
1261.7039,0.086383
1263.5675,0.085641
1265.4312,0.085041
1267.2949,0.084407
1269.1585,0.083818
1271.0222,0.083510
1272.8859,0.083275
1274.7495,0.082953
1276.6132,0.082570
1278.4769,0.082404
1280.3405,0.082389
1282.2042,0.082279
1284.0679,0.082238
1285.9316,0.082320
1287.7952,0.082569
1289.6589,0.082813
1291.5226,0.083023
1293.3862,0.083302
1295.2499,0.083742
1297.1136,0.084258
1298.9772,0.084855
1300.8409,0.085402
1302.7046,0.085794
1304.5682,0.086304
1306.4319,0.086859
1308.2956,0.087262
1310.1592,0.087661
1312.0229,0.088160
1313.8866,0.088212
1315.7503,0.087778
1317.6139,0.087618
1319.4776,0.087500
1321.3413,0.086869
1323.2049,0.086120
1325.0686,0.085483
1326.9323,0.084896
1328.7959,0.084444
1330.6596,0.084145
1332.5233,0.083915
1334.3869,0.083603
1336.2506,0.083658
1338.1143,0.084563
1339.9780,0.085602
1341.8416,0.085432
1343.7053,0.084855
1345.5690,0.084728
1347.4326,0.084929
1349.2963,0.085098
1351.1600,0.085116
1353.0236,0.085470
1354.8873,0.086136
1356.7510,0.086388
1358.6146,0.086574
1360.4783,0.087991
1362.3420,0.091146
1364.2056,0.093312
1366.0693,0.094049
1367.9330,0.095555
1369.7967,0.096903
1371.6603,0.098008
1373.5240,0.100645
1375.3877,0.102662
1377.2513,0.102773
1379.1150,0.102989
1380.9787,0.102876
1382.8423,0.102404
1384.7060,0.102114
1386.5697,0.103344
1388.4333,0.103919
1390.2970,0.102249
1392.1607,0.101235
1394.0244,0.102417
1395.8880,0.103509
1397.7517,0.103394
1399.6154,0.103557
1401.4790,0.101985
1403.3427,0.101040
1405.2064,0.101323
1407.0700,0.100475
1408.9337,0.099281
1410.7974,0.098695
1412.6610,0.097637
1414.5247,0.095995
1416.3884,0.095096
1418.2520,0.097439
1420.1157,0.099200
1421.9794,0.097376
1423.8431,0.097093
1425.7067,0.096977
1427.5704,0.096976
1429.4341,0.098813
1431.2977,0.099617
1433.1614,0.099063
1435.0251,0.101086
1436.8887,0.106354
1438.7524,0.106367
1440.6161,0.104773
1442.4797,0.104574
1444.3434,0.104217
1446.2071,0.104420
1448.0707,0.105489
1449.9344,0.104197
1451.7981,0.101542
1453.6618,0.099138
1455.5254,0.099823
1457.3891,0.103957
1459.2528,0.100883
1461.1164,0.095775
1462.9801,0.093664
1464.8438,0.094264
1466.7074,0.092209
1468.5711,0.088227
1470.4348,0.086143
1472.2984,0.087653
1474.1621,0.087517
1476.0258,0.085830
1477.8895,0.084317
1479.7531,0.083375
1481.6168,0.083620
1483.4805,0.083544
1485.3441,0.084088
1487.2078,0.087304
1489.0715,0.092693
1490.9351,0.096347
1492.7988,0.095686
1494.6625,0.097298
1496.5261,0.104151
1498.3898,0.109247
1500.2535,0.109751
1502.1171,0.108584
1503.9808,0.109264
1505.8445,0.120109
1507.7082,0.133243
1509.5718,0.131916
1511.4355,0.130990
1513.2992,0.131702
1515.1628,0.132798
1517.0265,0.134988
1518.8902,0.135024
1520.7538,0.138101
1522.6175,0.141687
1524.4812,0.141007
1526.3448,0.141863
1528.2085,0.142023
1530.0722,0.140649
1531.9359,0.140810
1533.7995,0.143055
1535.6632,0.140134
1537.5269,0.136877
1539.3905,0.140732
1541.2542,0.144746
1543.1179,0.141867
1544.9815,0.138737
1546.8452,0.134454
1548.7089,0.130755
1550.5725,0.127401
1552.4362,0.122989
1554.2999,0.118531
1556.1635,0.114599
1558.0272,0.115787
1559.8909,0.118196
1561.7546,0.111347
1563.6182,0.105982
1565.4819,0.102806
1567.3456,0.100355
1569.2092,0.099454
1571.0729,0.097474
1572.9366,0.093928
1574.8002,0.093333
1576.6639,0.095192
1578.5276,0.093321
1580.3912,0.090972
1582.2549,0.090516
1584.1186,0.090715
1585.9822,0.091271
1587.8459,0.092385
1589.7096,0.094014
1591.5733,0.095901
1593.4369,0.098532
1595.3006,0.101516
1597.1643,0.104301
1599.0279,0.107194
1600.8916,0.110623
1602.7553,0.114524
1604.6189,0.118441
1606.4826,0.122432
1608.3463,0.127270
1610.2099,0.131720
1612.0736,0.134708
1613.9373,0.137262
1615.8010,0.143740
1617.6646,0.150673
1619.5283,0.150957
1621.3920,0.151912
1623.2556,0.156858
1625.1193,0.159352
1626.9830,0.159926
1628.8466,0.160859
1630.7103,0.159489
1632.5740,0.156990
1634.4376,0.157940
1636.3013,0.160848
1638.1650,0.157597
1640.0286,0.152722
1641.8923,0.148622
1643.7560,0.144706
1645.6197,0.142576
1647.4833,0.140956
1649.3470,0.135619
1651.2107,0.130710
1653.0743,0.131323
1654.9380,0.127689
1656.8017,0.120435
1658.6653,0.114301
1660.5290,0.109345
1662.3927,0.105439
1664.2563,0.101243
1666.1200,0.096206
1667.9837,0.092188
1669.8474,0.089349
1671.7110,0.085365
1673.5747,0.080835
1675.4384,0.077392
1677.3020,0.073406
1679.1657,0.068916
1681.0294,0.064447
1682.8930,0.061062
1684.7567,0.058676
1686.6204,0.054568
1688.4840,0.050114
1690.3477,0.046125
1692.2114,0.041925
1694.0750,0.037821
1695.9387,0.034278
1697.8024,0.030751
1699.6661,0.027817
1701.5297,0.025565
1703.3934,0.023086
1705.2571,0.021139
1707.1207,0.019646
1708.9844,0.017981
1710.8481,0.016655
1712.7117,0.015602
1714.5754,0.014949
1716.4391,0.014774
1718.3027,0.014471
1720.1664,0.013467
1722.0301,0.012377
1723.8937,0.011918
1725.7574,0.011497
1727.6211,0.010832
1729.4848,0.010327
1731.3484,0.009730
1733.2121,0.009495
1735.0758,0.010099
1736.9394,0.009673
1738.8031,0.009094
1740.6668,0.009068
1742.5304,0.008586
1744.3941,0.007989
1746.2578,0.007606
1748.1214,0.007175
1749.9851,0.006881
1751.8488,0.006637
1753.7125,0.005954
1755.5761,0.005153
1757.4398,0.005000
1759.3035,0.004871
1761.1671,0.004618
1763.0308,0.004737
1764.8945,0.004333
1766.7581,0.003666
1768.6218,0.003636
1770.4855,0.003667
1772.3491,0.003858
1774.2128,0.004115
1776.0765,0.003811
1777.9401,0.003594
1779.8038,0.003582
1781.6675,0.003644
1783.5312,0.003621
1785.3948,0.003617
1787.2585,0.003548
1789.1222,0.003401
1790.9858,0.003294
1792.8495,0.003333
1794.7132,0.003546
1796.5768,0.003547
1798.4405,0.003304
1800.3042,0.003087
1802.1678,0.003056
1804.0315,0.003068
1805.8952,0.002942
1807.7589,0.002957
1809.6225,0.003042
1811.4862,0.002945
1813.3499,0.002796
1815.2135,0.002713
1817.0772,0.002769
1818.9409,0.002748
1820.8045,0.002614
1822.6682,0.002534
1824.5319,0.002776
1826.3955,0.003077
1828.2592,0.002711
1830.1229,0.002600
1831.9865,0.002693
1833.8502,0.002430
1835.7139,0.002333
1837.5776,0.002473
1839.4412,0.002481
1841.3049,0.002442
1843.1686,0.002509
1845.0322,0.002712
1846.8959,0.002868
1848.7596,0.002988
1850.6232,0.002760
1852.4869,0.002334
1854.3506,0.002282
1856.2142,0.002407
1858.0779,0.002402
1859.9416,0.002467
1861.8052,0.002514
1863.6689,0.002256
1865.5326,0.002076
1867.3963,0.002470
1869.2599,0.002904
1871.1236,0.003044
1872.9873,0.003072
1874.8509,0.002885
1876.7146,0.002667
1878.5783,0.002662
1880.4419,0.002518
1882.3056,0.002493
1884.1693,0.002569
1886.0329,0.002624
1887.8966,0.002631
1889.7603,0.002767
1891.6240,0.002909
1893.4876,0.002846
1895.3513,0.002879
1897.2150,0.003189
1899.0786,0.003027
1900.9423,0.002839
1902.8060,0.002967
1904.6696,0.002689
1906.5333,0.002316
1908.3970,0.002511
1910.2606,0.003077
1912.1243,0.003089
1913.9880,0.002619
1915.8516,0.002526
1917.7153,0.002634
1919.5790,0.002929
1921.4427,0.002834
1923.3063,0.002663
1925.1700,0.002709
1927.0337,0.002975
1928.8973,0.003436
1930.7610,0.003339
1932.6247,0.003051
1934.4883,0.003117
1936.3520,0.003163
1938.2157,0.003046
1940.0793,0.002840
1941.9430,0.003615
1943.8067,0.004373
1945.6704,0.003597
1947.5340,0.002743
1949.3977,0.003453
1951.2614,0.004142
1953.1250,0.003649
1954.9887,0.002658
1956.8524,0.003097
1958.7160,0.004064
1960.5797,0.004258
1962.4434,0.004216
1964.3070,0.004253
1966.1707,0.003952
1968.0344,0.003880
1969.8980,0.004260
1971.7617,0.004870
1973.6254,0.005257
1975.4891,0.005628
1977.3527,0.006497
1979.2164,0.007496
1981.0801,0.007027
1982.9437,0.006031
1984.8074,0.005958
1986.6711,0.006182
1988.5347,0.006111
1990.3984,0.005604
1992.2621,0.005112
1994.1257,0.005778
1995.9894,0.006072
1997.8531,0.005669
1999.7167,0.005016
2001.5804,0.004580
2003.4441,0.005073
2005.3078,0.006081
2007.1714,0.006065
2009.0351,0.006150
2010.8988,0.006609
2012.7624,0.007140
2014.6261,0.007021
2016.4898,0.007373
2018.3534,0.007313
2020.2171,0.006914
2022.0808,0.006824
2023.9444,0.006663
2025.8081,0.007426
2027.6718,0.009048
2029.5355,0.009281
2031.3991,0.008557
2033.2628,0.009316
2035.1265,0.011140
2036.9901,0.011351
2038.8538,0.010959
2040.7175,0.011241
2042.5811,0.012249
2044.4448,0.013847
2046.3085,0.015237
2048.1721,0.015711
2050.0358,0.016061
2051.8995,0.016143
2053.7631,0.015531
2055.6268,0.014861
2057.4905,0.015248
2059.3542,0.015267
2061.2178,0.014849
2063.0815,0.015094
2064.9452,0.015182
2066.8088,0.014418
2068.6725,0.013592
2070.5362,0.012936
2072.3998,0.012463
2074.2635,0.012441
2076.1272,0.012589
2077.9908,0.012354
2079.8545,0.011983
2081.7182,0.011117
2083.5819,0.009660
2085.4455,0.009396
2087.3092,0.009508
2089.1729,0.008615
2091.0365,0.007811
2092.9002,0.008022
2094.7639,0.008388
2096.6275,0.008476
2098.4912,0.009007
2100.3549,0.009133
2102.2185,0.008433
2104.0822,0.008526
2105.9459,0.009306
2107.8095,0.009570
2109.6732,0.008788
2111.5369,0.008201
2113.4006,0.008375
2115.2642,0.008326
2117.1279,0.008363
2118.9916,0.008390
2120.8552,0.008072
2122.7189,0.007385
2124.5826,0.007140
2126.4462,0.007262
2128.3099,0.006902
2130.1736,0.006621
2132.0372,0.006777
2133.9009,0.006607
2135.7646,0.007259
2137.6282,0.007937
2139.4919,0.007731
2141.3556,0.006850
2143.2193,0.006220
2145.0829,0.006127
2146.9466,0.006840
2148.8103,0.008245
2150.6739,0.009349
2152.5376,0.008895
2154.4013,0.007355
2156.2649,0.006152
2158.1286,0.008474
2159.9923,0.011363
2161.8559,0.011874
2163.7196,0.010326
2165.5833,0.009318
2167.4470,0.009644
2169.3106,0.009919
2171.1743,0.009316
2173.0380,0.008916
2174.9016,0.008775
2176.7653,0.009261
2178.6290,0.009862
2180.4926,0.009986
2182.3563,0.010239
2184.2200,0.010589
2186.0836,0.010228
2187.9473,0.010048
2189.8110,0.010321
2191.6746,0.010348
2193.5383,0.010023
2195.4020,0.009191
2197.2657,0.008047
2199.1293,0.008275
2200.9930,0.008112
2202.8567,0.008475
2204.7203,0.008591
2206.5840,0.007935
2208.4477,0.008530
2210.3113,0.010458
2212.1750,0.010597
2214.0387,0.009794
2215.9023,0.009141
2217.7660,0.008662
2219.6297,0.008329
2221.4934,0.008360
2223.3570,0.008374
2225.2207,0.008644
2227.0844,0.008706
2228.9480,0.009534
2230.8117,0.008745
2232.6754,0.007738
2234.5390,0.008866
2236.4027,0.009736
2238.2664,0.009583
2240.1300,0.009583
2241.9937,0.009151
2243.8574,0.008546
2245.7210,0.008777
2247.5847,0.009317
2249.4484,0.009007
2251.3121,0.008564
2253.1757,0.008095
2255.0394,0.008395
2256.9031,0.009297
2258.7667,0.009116
2260.6304,0.007945
2262.4941,0.008614
2264.3577,0.009440
2266.2214,0.009021
2268.0851,0.008516
2269.9487,0.008932
2271.8124,0.008968
2273.6761,0.009107
2275.5397,0.009276
2277.4034,0.009098
2279.2671,0.009089
2281.1308,0.008921
2282.9944,0.008849
2284.8581,0.009126
2286.7218,0.009342
2288.5854,0.009149
2290.4491,0.008757
2292.3128,0.008589
2294.1764,0.008468
2296.0401,0.008755
2297.9038,0.008818
2299.7674,0.008807
2301.6311,0.008873
2303.4948,0.008375
2305.3585,0.008162
2307.2221,0.008132
2309.0858,0.008474
2310.9495,0.008422
2312.8131,0.008452
2314.6768,0.008980
2316.5405,0.008870
2318.4041,0.008632
2320.2678,0.008955
2322.1315,0.009569
2323.9951,0.009738
2325.8588,0.009092
2327.7225,0.008198
2329.5861,0.007826
2331.4498,0.008217
2333.3135,0.008528
2335.1772,0.008159
2337.0408,0.008080
2338.9045,0.008416
2340.7682,0.009072
2342.6318,0.009480
2344.4955,0.009596
2346.3592,0.008923
2348.2228,0.007769
2350.0865,0.006677
2351.9502,0.006348
2353.8138,0.007297
2355.6775,0.007818
2357.5412,0.007629
2359.4049,0.008159
2361.2685,0.009049
2363.1322,0.010238
2364.9959,0.010001
2366.8595,0.009971
2368.7232,0.010625
2370.5869,0.011025
2372.4505,0.010881
2374.3142,0.010802
2376.1779,0.010390
2378.0415,0.009979
2379.9052,0.009494
2381.7689,0.009141
2383.6325,0.008993
2385.4962,0.008794
2387.3599,0.008438
2389.2236,0.008110
2391.0872,0.008053
2392.9509,0.008357
2394.8146,0.008347
2396.6782,0.008080
2398.5419,0.008178
2400.4056,0.008316
2402.2692,0.008273
2404.1329,0.008446
2405.9966,0.008800
2407.8602,0.009125
2409.7239,0.008864
2411.5876,0.008784
2413.4512,0.008903
2415.3149,0.008984
2417.1786,0.008921
2419.0423,0.009195
2420.9059,0.009151
2422.7696,0.009032
2424.6333,0.008967
2426.4969,0.008989
2428.3606,0.009220
2430.2243,0.009593
2432.0879,0.009866
2433.9516,0.009438
2435.8153,0.009079
2437.6789,0.009246
2439.5426,0.009565
2441.4063,0.009789
2443.2700,0.009815
2445.1336,0.009733
2446.9973,0.009716
2448.8610,0.009956
2450.7246,0.010012
2452.5883,0.009808
2454.4520,0.010020
2456.3156,0.010217
2458.1793,0.009971
2460.0430,0.009832
2461.9066,0.009837
2463.7703,0.009840
2465.6340,0.009912
2467.4976,0.010128
2469.3613,0.010417
2471.2250,0.010495
2473.0887,0.010401
2474.9523,0.010506
2476.8160,0.010565
2478.6797,0.010465
2480.5433,0.010540
2482.4070,0.010708
2484.2707,0.010691
2486.1343,0.010653
2487.9980,0.010556
2489.8617,0.010405
2491.7253,0.010401
2493.5890,0.011005
2495.4527,0.011295
2497.3164,0.011203
2499.1800,0.010972
2501.0437,0.011139
2502.9074,0.011222
2504.7710,0.011150
2506.6347,0.011489
2508.4984,0.011601
2510.3620,0.011538
2512.2257,0.011754
2514.0894,0.011845
2515.9530,0.011543
2517.8167,0.011477
2519.6804,0.011880
2521.5440,0.011876
2523.4077,0.011851
2525.2714,0.012246
2527.1351,0.012083
2528.9987,0.011818
2530.8624,0.012041
2532.7261,0.012068
2534.5897,0.011908
2536.4534,0.011898
2538.3171,0.012209
2540.1807,0.012614
2542.0444,0.012546
2543.9081,0.012286
2545.7717,0.012253
2547.6354,0.012246
2549.4991,0.012568
2551.3627,0.012658
2553.2264,0.012554
2555.0901,0.012608
2556.9538,0.012751
2558.8174,0.012818
2560.6811,0.012975
2562.5448,0.013193
2564.4084,0.013490
2566.2721,0.013517
2568.1358,0.013365
2569.9994,0.013463
2571.8631,0.013518
2573.7268,0.013521
2575.5904,0.013585
2577.4541,0.013568
2579.3178,0.013841
2581.1815,0.014095
2583.0451,0.014215
2584.9088,0.014146
2586.7725,0.014120
2588.6361,0.014539
2590.4998,0.015076
2592.3635,0.014900
2594.2271,0.014910
2596.0908,0.015134
2597.9545,0.015170
2599.8181,0.014975
2601.6818,0.014887
2603.5455,0.014795
2605.4091,0.014954
2607.2728,0.014980
2609.1365,0.015275
2611.0002,0.015817
2612.8638,0.015917
2614.7275,0.015883
2616.5912,0.015975
2618.4548,0.016197
2620.3185,0.016330
2622.1822,0.016177
2624.0458,0.016429
2625.9095,0.016685
2627.7732,0.016595
2629.6368,0.016777
2631.5005,0.017104
2633.3642,0.017079
2635.2279,0.017127
2637.0915,0.017227
2638.9552,0.017391
2640.8189,0.017531
2642.6825,0.017536
2644.5462,0.017609
2646.4099,0.017883
2648.2735,0.017928
2650.1372,0.017912
2652.0009,0.017918
2653.8645,0.017890
2655.7282,0.017987
2657.5919,0.018109
2659.4555,0.018067
2661.3192,0.018054
2663.1829,0.018271
2665.0466,0.018298
2666.9102,0.018121
2668.7739,0.018262
2670.6376,0.018520
2672.5012,0.018521
2674.3649,0.018454
2676.2286,0.018561
2678.0922,0.018732
2679.9559,0.018922
2681.8196,0.019041
2683.6832,0.019010
2685.5469,0.018918
2687.4106,0.019037
2689.2742,0.019332
2691.1379,0.019394
2693.0016,0.019341
2694.8653,0.019570
2696.7289,0.019832
2698.5926,0.019864
2700.4563,0.019841
2702.3199,0.020081
2704.1836,0.020178
2706.0473,0.020147
2707.9109,0.020295
2709.7746,0.020773
2711.6383,0.020878
2713.5019,0.020709
2715.3656,0.020929
2717.2293,0.021290
2719.0930,0.021357
2720.9566,0.021451
2722.8203,0.021790
2724.6840,0.022008
2726.5476,0.022049
2728.4113,0.022131
2730.2750,0.022295
2732.1386,0.022632
2734.0023,0.022862
2735.8660,0.022900
2737.7296,0.022892
2739.5933,0.023032
2741.4570,0.023114
2743.3206,0.023400
2745.1843,0.023638
2747.0480,0.023845
2748.9117,0.024037
2750.7753,0.024175
2752.6390,0.024339
2754.5027,0.024455
2756.3663,0.024613
2758.2300,0.024820
2760.0937,0.025106
2761.9573,0.025254
2763.8210,0.025230
2765.6847,0.025545
2767.5483,0.025690
2769.4120,0.025787
2771.2757,0.026224
2773.1394,0.026566
2775.0030,0.026590
2776.8667,0.026781
2778.7304,0.027046
2780.5940,0.027158
2782.4577,0.027466
2784.3214,0.027756
2786.1850,0.027860
2788.0487,0.028054
2789.9124,0.028202
2791.7760,0.028380
2793.6397,0.028517
2795.5034,0.028700
2797.3670,0.029138
2799.2307,0.029545
2801.0944,0.029700
2802.9581,0.029684
2804.8217,0.029931
2806.6854,0.030384
2808.5491,0.030560
2810.4127,0.030848
2812.2764,0.031179
2814.1401,0.031464
2816.0037,0.031729
2817.8674,0.031772
2819.7311,0.032045
2821.5947,0.032626
2823.4584,0.032805
2825.3221,0.032891
2827.1857,0.033206
2829.0494,0.033575
2830.9131,0.034110
2832.7768,0.034725
2834.6404,0.035033
2836.5041,0.035308
2838.3678,0.035801
2840.2314,0.036377
2842.0951,0.036971
2843.9588,0.037650
2845.8224,0.038483
2847.6861,0.039510
2849.5498,0.040472
2851.4134,0.040934
2853.2771,0.040829
2855.1408,0.040772
2857.0045,0.040874
2858.8681,0.040887
2860.7318,0.041034
2862.5955,0.041634
2864.4591,0.042163
2866.3228,0.042356
2868.1865,0.042829
2870.0501,0.043417
2871.9138,0.043817
2873.7775,0.043985
2875.6411,0.043838
2877.5048,0.043562
2879.3685,0.043397
2881.2321,0.043404
2883.0958,0.043582
2884.9595,0.043722
2886.8232,0.043745
2888.6868,0.043877
2890.5505,0.044252
2892.4142,0.044807
2894.2778,0.045088
2896.1415,0.045045
2898.0052,0.045210
2899.8688,0.045656
2901.7325,0.046019
2903.5962,0.046387
2905.4598,0.046779
2907.3235,0.047238
2909.1872,0.047857
2911.0509,0.048564
2912.9145,0.049320
2914.7782,0.049974
2916.6419,0.050322
2918.5055,0.050631
2920.3692,0.051217
2922.2329,0.051703
2924.0965,0.051665
2925.9602,0.051429
2927.8239,0.051442
2929.6875,0.051529
2931.5512,0.051130
2933.4149,0.050475
2935.2785,0.050231
2937.1422,0.049992
2939.0059,0.049460
2940.8696,0.049023
2942.7332,0.048704
2944.5969,0.048370
2946.4606,0.047969
2948.3242,0.047875
2950.1879,0.048079
2952.0516,0.048066
2953.9152,0.048285
2955.7789,0.048789
2957.6426,0.048744
2959.5062,0.048284
2961.3699,0.047596
2963.2336,0.047090
2965.0972,0.046920
2966.9609,0.046533
2968.8246,0.046046
2970.6883,0.045574
2972.5519,0.045258
2974.4156,0.044791
2976.2793,0.044049
2978.1429,0.043580
2980.0066,0.043186
2981.8703,0.042517
2983.7339,0.041848
2985.5976,0.041490
2987.4613,0.041629
2989.3249,0.041653
2991.1886,0.041301
2993.0523,0.040894
2994.9160,0.040561
2996.7796,0.040545
2998.6433,0.040739
3000.5070,0.040949
3002.3706,0.041125
3004.2343,0.041444
3006.0980,0.041857
3007.9616,0.041975
3009.8253,0.042280
3011.6890,0.042745
3013.5526,0.042777
3015.4163,0.042908
3017.2800,0.043510
3019.1436,0.043880
3021.0073,0.044105
3022.8710,0.044616
3024.7347,0.045084
3026.5983,0.045325
3028.4620,0.045979
3030.3257,0.046706
3032.1893,0.047071
3034.0530,0.047403
3035.9167,0.047654
3037.7803,0.048083
3039.6440,0.048770
3041.5077,0.049072
3043.3713,0.049198
3045.2350,0.049294
3047.0987,0.049554
3048.9624,0.050041
3050.8260,0.050512
3052.6897,0.051081
3054.5534,0.051535
3056.4170,0.051686
3058.2807,0.052291
3060.1444,0.052818
3062.0080,0.052738
3063.8717,0.052806
3065.7354,0.053362
3067.5990,0.053608
3069.4627,0.053590
3071.3264,0.053972
3073.1900,0.054148
3075.0537,0.054149
3076.9174,0.054411
3078.7811,0.054340
3080.6447,0.054362
3082.5084,0.054421
3084.3721,0.054511
3086.2357,0.054554
3088.0994,0.054280
3089.9631,0.054163
3091.8267,0.054300
3093.6904,0.054747
3095.5541,0.055099
3097.4177,0.055090
3099.2814,0.054949
3101.1451,0.054786
3103.0087,0.054762
3104.8724,0.055100
3106.7361,0.055445
3108.5998,0.055131
3110.4634,0.055105
3112.3271,0.055800
3114.1908,0.056454
3116.0544,0.056450
3117.9181,0.056452
3119.7818,0.056785
3121.6454,0.057029
3123.5091,0.057360
3125.3728,0.057770
3127.2364,0.058269
3129.1001,0.058615
3130.9638,0.058810
3132.8275,0.059282
3134.6911,0.059550
3136.5548,0.060207
3138.4185,0.060886
3140.2821,0.061071
3142.1458,0.061183
3144.0095,0.061877
3145.8731,0.062409
3147.7368,0.062716
3149.6005,0.063120
3151.4641,0.063655
3153.3278,0.064001
3155.1915,0.064503
3157.0551,0.065054
3158.9188,0.066009
3160.7825,0.066656
3162.6462,0.066697
3164.5098,0.066975
3166.3735,0.067701
3168.2372,0.068234
3170.1008,0.068581
3171.9645,0.068983
3173.8282,0.069777
3175.6918,0.070316
3177.5555,0.070839
3179.4192,0.071283
3181.2828,0.071727
3183.1465,0.072061
3185.0102,0.072242
3186.8739,0.072591
3188.7375,0.073284
3190.6012,0.073606
3192.4649,0.073768
3194.3285,0.074377
3196.1922,0.074962
3198.0559,0.075126
3199.9195,0.075148
3201.7832,0.075466
3203.6469,0.076057
3205.5105,0.076258
3207.3742,0.076835
3209.2379,0.076995
3211.1015,0.076923
3212.9652,0.077165
3214.8289,0.077357
3216.6926,0.077557
3218.5562,0.077989
3220.4199,0.077981
3222.2836,0.078082
3224.1472,0.078607
3226.0109,0.079221
3227.8746,0.079265
3229.7382,0.079408
3231.6019,0.079725
3233.4656,0.080259
3235.3292,0.080770
3237.1929,0.080881
3239.0566,0.080460
3240.9202,0.080873
3242.7839,0.081455
3244.6476,0.082055
3246.5113,0.082500
3248.3749,0.082375
3250.2386,0.082181
3252.1023,0.082452
3253.9659,0.082536
3255.8296,0.082828
3257.6933,0.082945
3259.5569,0.083169
3261.4206,0.083236
3263.2843,0.083760
3265.1479,0.084441
3267.0116,0.084650
3268.8753,0.084077
3270.7390,0.084026
3272.6026,0.083997
3274.4663,0.083670
3276.3300,0.083323
3278.1936,0.083201
3280.0573,0.082740
3281.9210,0.082395
3283.7846,0.082070
3285.6483,0.081579
3287.5120,0.081116
3289.3756,0.081303
3291.2393,0.081092
3293.1030,0.080909
3294.9666,0.080520
3296.8303,0.079571
3298.6940,0.078852
3300.5577,0.078875
3302.4213,0.078221
3304.2850,0.077564
3306.1487,0.076608
3308.0123,0.075818
3309.8760,0.075338
3311.7397,0.074944
3313.6033,0.074831
3315.4670,0.074662
3317.3307,0.073751
3319.1943,0.073525
3321.0580,0.073534
3322.9217,0.072955
3324.7854,0.072202
3326.6490,0.072064
3328.5127,0.071684
3330.3764,0.071410
3332.2400,0.071188
3334.1037,0.071305
3335.9674,0.070678
3337.8310,0.070023
3339.6947,0.069511
3341.5584,0.069546
3343.4220,0.069784
3345.2857,0.069446
3347.1494,0.068313
3349.0130,0.067581
3350.8767,0.067119
3352.7404,0.067555
3354.6041,0.067777
3356.4677,0.067436
3358.3314,0.066995
3360.1951,0.067010
3362.0587,0.066806
3363.9224,0.066019
3365.7861,0.065228
3367.6497,0.065222
3369.5134,0.065319
3371.3771,0.065283
3373.2407,0.064323
3375.1044,0.063736
3376.9681,0.063332
3378.8317,0.063350
3380.6954,0.063634
3382.5591,0.063648
3384.4228,0.063041
3386.2864,0.062764
3388.1501,0.062427
3390.0138,0.061643
3391.8774,0.061531
3393.7411,0.061455
3395.6048,0.060589
3397.4684,0.060461
3399.3321,0.060434
3401.1958,0.060517
3403.0594,0.059960
3404.9231,0.059432
3406.7868,0.058477
3408.6505,0.058009
3410.5141,0.058083
3412.3778,0.058057
3414.2415,0.057337
3416.1051,0.056947
3417.9688,0.057439
3419.8325,0.057162
3421.6961,0.056095
3423.5598,0.055630
3425.4235,0.055964
3427.2871,0.056244
3429.1508,0.055548
3431.0145,0.054488
3432.8781,0.054080
3434.7418,0.053862
3436.6055,0.053416
3438.4692,0.052857
3440.3328,0.052419
3442.1965,0.052487
3444.0602,0.052725
3445.9238,0.052917
3447.7875,0.052036
3449.6512,0.051576
3451.5148,0.051115
3453.3785,0.050735
3455.2422,0.049739
3457.1058,0.049206
3458.9695,0.048633
3460.8332,0.048286
3462.6969,0.048501
3464.5605,0.048076
3466.4242,0.046911
3468.2879,0.046588
3470.1515,0.046420
3472.0152,0.046096
3473.8789,0.045791
3475.7425,0.045604
3477.6062,0.044555
3479.4699,0.044584
3481.3335,0.044674
3483.1972,0.043670
3485.0609,0.042742
3486.9245,0.042268
3488.7882,0.041643
3490.6519,0.041160
3492.5156,0.040231
3494.3792,0.039794
3496.2429,0.039155
3498.1066,0.038604
3499.9702,0.038836
3501.8339,0.039237
3503.6976,0.038548
3505.5612,0.037856
3507.4249,0.037380
3509.2886,0.036517
3511.1522,0.036297
3513.0159,0.036485
3514.8796,0.036209
3516.7432,0.035604
3518.6069,0.034428
3520.4706,0.033171
3522.3343,0.032631
3524.1979,0.032628
3526.0616,0.033292
3527.9253,0.032973
3529.7889,0.031631
3531.6526,0.031143
3533.5163,0.031012
3535.3799,0.030968
3537.2436,0.030090
3539.1073,0.028575
3540.9709,0.027845
3542.8346,0.027243
3544.6983,0.026898
3546.5620,0.027066
3548.4256,0.027005
3550.2893,0.026318
3552.1530,0.025766
3554.0166,0.025616
3555.8803,0.024523
3557.7440,0.023459
3559.6076,0.022613
3561.4713,0.022271
3563.3350,0.022042
3565.1986,0.021483
3567.0623,0.021314
3568.9260,0.021505
3570.7896,0.020588
3572.6533,0.019240
3574.5170,0.019183
3576.3807,0.019390
3578.2443,0.018504
3580.1080,0.017679
3581.9717,0.017383
3583.8353,0.016599
3585.6990,0.016050
3587.5627,0.016148
3589.4263,0.015950
3591.2900,0.015237
3593.1537,0.013888
3595.0173,0.013761
3596.8810,0.014018
3598.7447,0.013277
3600.6084,0.012629
3602.4720,0.012369
3604.3357,0.011761
3606.1994,0.011368
3608.0630,0.010753
3609.9267,0.010027
3611.7904,0.009116
3613.6540,0.009041
3615.5177,0.009432
3617.3814,0.009164
3619.2450,0.008772
3621.1087,0.008675
3622.9724,0.007818
3624.8360,0.006594
3626.6997,0.005533
3628.5634,0.005069
3630.4271,0.006060
3632.2907,0.006051
3634.1544,0.004973
3636.0181,0.004449
3637.8817,0.004179
3639.7454,0.003281
3641.6091,0.002473
3643.4727,0.002336
3645.3364,0.002185
3647.2001,0.001890
3649.0637,0.001781
3650.9274,0.001668
3652.7911,0.001465
3654.6547,0.000865
3656.5184,-0.000165
3658.3821,-0.000340
3660.2458,-0.000584
3662.1094,-0.001492
3663.9731,-0.002032
3665.8368,-0.001793
3667.7004,-0.002017
3669.5641,-0.002650
3671.4278,-0.002771
3673.2914,-0.003254
3675.1551,-0.003959
3677.0188,-0.003056
3678.8824,-0.002775
3680.7461,-0.003380
3682.6098,-0.003788
3684.4735,-0.004387
3686.3371,-0.004541
3688.2008,-0.004570
3690.0645,-0.004416
3691.9281,-0.004426
3693.7918,-0.004400
3695.6555,-0.004890
3697.5191,-0.005421
3699.3828,-0.005141
3701.2465,-0.005069
3703.1101,-0.004851
3704.9738,-0.004899
3706.8375,-0.005211
3708.7011,-0.005307
3710.5648,-0.005670
3712.4285,-0.005605
3714.2922,-0.005022
3716.1558,-0.005286
3718.0195,-0.005453
3719.8832,-0.005193
3721.7468,-0.005490
3723.6105,-0.005622
3725.4742,-0.005766
3727.3378,-0.005763
3729.2015,-0.005352
3731.0652,-0.005985
3732.9288,-0.006554
3734.7925,-0.006236
3736.6562,-0.005967
3738.5199,-0.005539
3740.3835,-0.005674
3742.2472,-0.006736
3744.1109,-0.007345
3745.9745,-0.006136
3747.8382,-0.005694
3749.7019,-0.006277
3751.5655,-0.005733
3753.4292,-0.005040
3755.2929,-0.004943
3757.1565,-0.005233
3759.0202,-0.005340
3760.8839,-0.005753
3762.7475,-0.005773
3764.6112,-0.005736
3766.4749,-0.005589
3768.3386,-0.005538
3770.2022,-0.005832
3772.0659,-0.005526
3773.9296,-0.005616
3775.7932,-0.005726
3777.6569,-0.005651
3779.5206,-0.005775
3781.3842,-0.005603
3783.2479,-0.005725
3785.1116,-0.005894
3786.9752,-0.006011
3788.8389,-0.006014
3790.7026,-0.005949
3792.5662,-0.005940
3794.4299,-0.005865
3796.2936,-0.005790
3798.1573,-0.005487
3800.0209,-0.006077
3801.8846,-0.006654
3803.7483,-0.006065
3805.6119,-0.005980
3807.4756,-0.006176
3809.3393,-0.005677
3811.2029,-0.005603
3813.0666,-0.005873
3814.9303,-0.006160
3816.7939,-0.006103
3818.6576,-0.005653
3820.5213,-0.006299
3822.3850,-0.005827
3824.2486,-0.005042
3826.1123,-0.005527
3827.9760,-0.005786
3829.8396,-0.006089
3831.7033,-0.006498
3833.5670,-0.006323
3835.4306,-0.006126
3837.2943,-0.006169
3839.1580,-0.006416
3841.0216,-0.006232
3842.8853,-0.005850
3844.7490,-0.005892
3846.6126,-0.005936
3848.4763,-0.006023
3850.3400,-0.006458
3852.2037,-0.006859
3854.0673,-0.006372
3855.9310,-0.004669
3857.7947,-0.004391
3859.6583,-0.005045
3861.5220,-0.005451
3863.3857,-0.006020
3865.2493,-0.006483
3867.1130,-0.005747
3868.9767,-0.005868
3870.8403,-0.005816
3872.7040,-0.005233
3874.5677,-0.005514
3876.4314,-0.005449
3878.2950,-0.005686
3880.1587,-0.006225
3882.0224,-0.005881
3883.8860,-0.005719
3885.7497,-0.006250
3887.6134,-0.005624
3889.4770,-0.005019
3891.3407,-0.005062
3893.2044,-0.004982
3895.0680,-0.005265
3896.9317,-0.005699
3898.7954,-0.005854
3900.6590,-0.005895
3902.5227,-0.005855
3904.3864,-0.005706
3906.2501,-0.005213
3908.1137,-0.005006
3909.9774,-0.005178
3911.8411,-0.005282
3913.7047,-0.005287
3915.5684,-0.005484
3917.4321,-0.005244
3919.2957,-0.004866
3921.1594,-0.005023
3923.0231,-0.005049
3924.8867,-0.005131
3926.7504,-0.005290
3928.6141,-0.005336
3930.4777,-0.005141
3932.3414,-0.004894
3934.2051,-0.004850
3936.0688,-0.004921
3937.9324,-0.005062
3939.7961,-0.004717
3941.6598,-0.004581
3943.5234,-0.005027
3945.3871,-0.005402
3947.2508,-0.005442
3949.1144,-0.005329
3950.9781,-0.004935
3952.8418,-0.004482
3954.7054,-0.004587
3956.5691,-0.004904
3958.4328,-0.004971
3960.2965,-0.004991
3962.1601,-0.005010
3964.0238,-0.005076
3965.8875,-0.005345
3967.7511,-0.005411
3969.6148,-0.004971
3971.4785,-0.004773
3973.3421,-0.005149
3975.2058,-0.005103
3977.0695,-0.004817
3978.9331,-0.004843
3980.7968,-0.004994
3982.6605,-0.005366
3984.5241,-0.005412
3986.3878,-0.004883
3988.2515,-0.004875
3990.1152,-0.005121
3991.9788,-0.004905
3993.8425,-0.004908
3995.7062,-0.005109
3997.5698,-0.004786
3999.4335,-0.004662
