Wavenumber,Intensity
650.4205,0.073146
652.2841,0.074357
654.1478,0.073081
656.0115,0.072382
657.8751,0.074441
659.7388,0.074762
661.6025,0.073335
663.4661,0.071979
665.3298,0.071006
667.1935,0.071518
669.0571,0.073729
670.9208,0.071486
672.7845,0.070112
674.6481,0.070943
676.5118,0.069655
678.3755,0.067845
680.2392,0.068200
682.1028,0.068223
683.9665,0.067093
685.8302,0.067138
687.6938,0.067760
689.5575,0.066989
691.4212,0.064923
693.2848,0.064766
695.1485,0.065681
697.0122,0.064760
698.8758,0.064329
700.7395,0.064739
702.6032,0.064475
704.4669,0.063338
706.3305,0.061464
708.1942,0.061539
710.0579,0.062182
711.9215,0.061131
713.7852,0.060336
715.6489,0.060424
717.5125,0.060127
719.3762,0.059431
721.2399,0.059005
723.1035,0.058552
724.9672,0.058013
726.8309,0.057302
728.6945,0.056991
730.5582,0.057183
732.4219,0.056768
734.2856,0.055719
736.1492,0.055315
738.0129,0.055634
739.8766,0.055921
741.7402,0.055588
743.6039,0.054851
745.4676,0.054410
747.3312,0.053989
749.1949,0.053391
751.0586,0.052897
752.9222,0.053073
754.7859,0.053140
756.6496,0.052351
758.5132,0.051423
760.3769,0.051420
762.2406,0.051623
764.1043,0.051141
765.9679,0.050625
767.8316,0.050629
769.6953,0.050709
771.5589,0.050744
773.4226,0.050092
775.2863,0.049320
777.1499,0.048751
779.0136,0.048273
780.8773,0.048126
782.7409,0.047977
784.6046,0.047762
786.4683,0.047655
788.3320,0.047255
790.1956,0.046768
792.0593,0.046438
793.9230,0.046144
795.7866,0.045856
797.6503,0.045638
799.5140,0.045480
801.3776,0.045158
803.2413,0.044588
805.1050,0.044112
806.9686,0.043978
808.8323,0.044091
810.6960,0.043992
812.5596,0.043701
814.4233,0.043248
816.2870,0.042737
818.1507,0.042703
820.0143,0.042697
821.8780,0.042218
823.7417,0.041836
825.6053,0.041563
827.4690,0.041145
829.3327,0.040699
831.1963,0.040603
833.0600,0.040625
834.9237,0.040278
836.7873,0.039605
838.6510,0.039265
840.5147,0.039236
842.3784,0.038751
844.2420,0.038387
846.1057,0.038558
847.9694,0.038573
849.8330,0.038378
851.6967,0.038260
853.5604,0.038257
855.4240,0.038132
857.2877,0.037957
859.1514,0.037852
861.0150,0.038168
862.8787,0.038676
864.7424,0.038831
866.6060,0.039100
868.4697,0.039851
870.3334,0.040648
872.1971,0.040625
874.0607,0.039538
875.9244,0.038218
877.7881,0.037255
879.6517,0.036794
881.5154,0.036346
883.3791,0.036045
885.2427,0.035718
887.1064,0.035410
888.9701,0.035224
890.8337,0.035025
892.6974,0.035013
894.5611,0.035042
896.4247,0.035083
898.2884,0.034914
900.1521,0.034581
902.0158,0.034249
903.8794,0.034003
905.7431,0.034062
907.6068,0.034051
909.4704,0.034067
911.3341,0.034410
913.1978,0.034779
915.0614,0.035114
916.9251,0.035372
918.7888,0.035707
920.6524,0.036084
922.5161,0.036345
924.3798,0.036513
926.2435,0.036739
928.1071,0.036977
929.9708,0.037226
931.8345,0.037495
933.6981,0.037676
935.5618,0.037860
937.4255,0.038108
939.2891,0.038439
941.1528,0.038832
943.0165,0.039234
944.8801,0.039611
946.7438,0.040046
948.6075,0.040205
950.4711,0.040358
952.3348,0.040687
954.1985,0.040897
956.0622,0.041252
957.9258,0.041877
959.7895,0.042696
961.6532,0.043737
963.5168,0.044870
965.3805,0.045885
967.2442,0.046766
969.1078,0.047473
970.9715,0.048098
972.8352,0.048711
974.6988,0.049203
976.5625,0.049907
978.4262,0.050891
980.2899,0.052010
982.1535,0.052970
984.0172,0.053588
985.8809,0.053839
987.7445,0.053920
989.6082,0.053888
991.4719,0.053836
993.3355,0.053804
995.1992,0.053837
997.0629,0.054018
998.9265,0.054267
1000.7902,0.054583
1002.6539,0.054840
1004.5175,0.055109
1006.3812,0.055497
1008.2449,0.056184
1010.1086,0.057080
1011.9722,0.058075
1013.8359,0.059152
1015.6996,0.060340
1017.5632,0.061638
1019.4269,0.062740
1021.2906,0.063521
1023.1542,0.064215
1025.0179,0.064851
1026.8816,0.065376
1028.7452,0.065880
1030.6089,0.066380
1032.4726,0.066685
1034.3362,0.066837
1036.1999,0.066884
1038.0636,0.066832
1039.9273,0.066755
1041.7909,0.066724
1043.6546,0.066804
1045.5183,0.067134
1047.3819,0.067578
1049.2456,0.067921
1051.1093,0.068190
1052.9729,0.068415
1054.8366,0.068588
1056.7003,0.068624
1058.5639,0.068622
1060.4276,0.068498
1062.2913,0.068222
1064.1550,0.067882
1066.0186,0.067518
1067.8823,0.067158
1069.7460,0.066970
1071.6096,0.066812
1073.4733,0.066404
1075.3370,0.065867
1077.2006,0.065134
1079.0643,0.064140
1080.9280,0.062977
1082.7916,0.061656
1084.6553,0.060216
1086.5190,0.058871
1088.3826,0.057593
1090.2463,0.056426
1092.1100,0.055477
1093.9737,0.054666
1095.8373,0.053929
1097.7010,0.053293
1099.5647,0.052691
1101.4283,0.052134
1103.2920,0.051823
1105.1557,0.051592
1107.0193,0.051097
1108.8830,0.050663
1110.7467,0.050447
1112.6103,0.050206
1114.4740,0.049819
1116.3377,0.049287
1118.2014,0.048762
1120.0650,0.048256
1121.9287,0.047722
1123.7924,0.047121
1125.6560,0.046562
1127.5197,0.046022
1129.3834,0.045510
1131.2470,0.045011
1133.1107,0.044334
1134.9744,0.043579
1136.8380,0.042832
1138.7017,0.042141
1140.5654,0.041662
1142.4290,0.041316
1144.2927,0.041076
1146.1564,0.040932
1148.0201,0.040795
1149.8837,0.040784
1151.7474,0.040744
1153.6111,0.040629
1155.4747,0.040529
1157.3384,0.040429
1159.2021,0.040181
1161.0657,0.039720
1162.9294,0.039152
1164.7931,0.038441
1166.6567,0.037614
1168.5204,0.036764
1170.3841,0.035764
1172.2477,0.034724
1174.1114,0.033682
1175.9751,0.032665
1177.8388,0.031843
1179.7024,0.031202
1181.5661,0.030685
1183.4298,0.030387
1185.2934,0.030356
1187.1571,0.030449
1189.0208,0.030623
1190.8844,0.030851
1192.7481,0.031221
1194.6118,0.031699
1196.4754,0.032098
1198.3391,0.032563
1200.2028,0.033024
1202.0665,0.033533
1203.9301,0.034052
1205.7938,0.034484
1207.6575,0.034807
1209.5211,0.035089
1211.3848,0.035386
1213.2485,0.035670
1215.1121,0.036023
1216.9758,0.036508
1218.8395,0.036954
1220.7031,0.037384
1222.5668,0.037868
1224.4305,0.038318
1226.2941,0.038716
1228.1578,0.039067
1230.0215,0.039325
1231.8852,0.039534
1233.7488,0.039628
1235.6125,0.039687
1237.4762,0.039749
1239.3398,0.039708
1241.2035,0.039567
1243.0672,0.039374
1244.9308,0.039090
1246.7945,0.038821
1248.6582,0.038519
1250.5218,0.038179
1252.3855,0.037857
1254.2492,0.037570
1256.1129,0.037339
1257.9765,0.036967
1259.8402,0.036643
1261.7039,0.036423
1263.5675,0.036224
1265.4312,0.036006
1267.2949,0.035819
1269.1585,0.035577
1271.0222,0.035377
1272.8859,0.035343
1274.7495,0.035283
1276.6132,0.035208
1278.4769,0.035137
1280.3405,0.035159
1282.2042,0.035084
1284.0679,0.034994
1285.9316,0.034972
1287.7952,0.035033
1289.6589,0.035071
1291.5226,0.035077
1293.3862,0.035187
1295.2499,0.035400
1297.1136,0.035606
1298.9772,0.035879
1300.8409,0.036287
1302.7046,0.036549
1304.5682,0.036803
1306.4319,0.037254
1308.2956,0.037550
1310.1592,0.037695
1312.0229,0.038013
1313.8866,0.038143
1315.7503,0.038052
1317.6139,0.038125
1319.4776,0.038117
1321.3413,0.037701
1323.2049,0.037267
1325.0686,0.037051
1326.9323,0.036869
1328.7959,0.036664
1330.6596,0.036586
1332.5233,0.036631
1334.3869,0.036465
1336.2506,0.036519
1338.1143,0.037110
1339.9780,0.037481
1341.8416,0.037179
1343.7053,0.036956
1345.5690,0.036800
1347.4326,0.036653
1349.2963,0.036662
1351.1600,0.036779
1353.0236,0.037002
1354.8873,0.037271
1356.7510,0.037296
1358.6146,0.037389
1360.4783,0.038031
1362.3420,0.039339
1364.2056,0.039889
1366.0693,0.039978
1367.9330,0.040674
1369.7967,0.041166
1371.6603,0.041635
1373.5240,0.042986
1375.3877,0.043821
1377.2513,0.043892
1379.1150,0.044264
1380.9787,0.044453
1382.8423,0.044630
1384.7060,0.044945
1386.5697,0.046246
1388.4333,0.046767
1390.2970,0.046131
1392.1607,0.046324
1394.0244,0.047851
1395.8880,0.048652
1397.7517,0.048907
1399.6154,0.049446
1401.4790,0.048694
1403.3427,0.048925
1405.2064,0.049504
1407.0700,0.048892
1408.9337,0.048361
1410.7974,0.048241
1412.6610,0.047517
1414.5247,0.046663
1416.3884,0.046620
1418.2520,0.048108
1420.1157,0.047922
1421.9794,0.046383
1423.8431,0.046278
1425.7067,0.045699
1427.5704,0.045481
1429.4341,0.046045
1431.2977,0.045642
1433.1614,0.044997
1435.0251,0.046328
1436.8887,0.048737
1438.7524,0.047865
1440.6161,0.047233
1442.4797,0.047312
1444.3434,0.047315
1446.2071,0.047823
1448.0707,0.048422
1449.9344,0.047573
1451.7981,0.046555
1453.6618,0.045769
1455.5254,0.047332
1457.3891,0.049724
1459.2528,0.047083
1461.1164,0.044610
1462.9801,0.044161
1464.8438,0.044699
1466.7074,0.043304
1468.5711,0.041653
1470.4348,0.041401
1472.2984,0.042462
1474.1621,0.041579
1476.0258,0.040420
1477.8895,0.039211
1479.7531,0.038601
1481.6168,0.038547
1483.4805,0.038068
1485.3441,0.038257
1487.2078,0.039463
1489.0715,0.041593
1490.9351,0.042697
1492.7988,0.041762
1494.6625,0.042595
1496.5261,0.045463
1498.3898,0.046918
1500.2535,0.046747
1502.1171,0.046005
1503.9808,0.046788
1505.8445,0.052663
1507.7082,0.057343
1509.5718,0.055963
1511.4355,0.055983
1513.2992,0.056455
1515.1628,0.057726
1517.0265,0.059194
1518.8902,0.059267
1520.7538,0.061860
1522.6175,0.062784
1524.4812,0.062296
1526.3448,0.063328
1528.2085,0.063313
1530.0722,0.062781
1531.9359,0.063906
1533.7995,0.065327
1535.6632,0.063089
1537.5269,0.063416
1539.3905,0.067950
1541.2542,0.069102
1543.1179,0.067467
1544.9815,0.066484
1546.8452,0.064319
1548.7089,0.063539
1550.5725,0.062600
1552.4362,0.060951
1554.2999,0.059659
1556.1635,0.058543
1558.0272,0.062337
1559.8909,0.062265
1561.7546,0.056410
1563.6182,0.054257
1565.4819,0.052918
1567.3456,0.051954
1569.2092,0.052248
1571.0729,0.050288
1572.9366,0.048364
1574.8002,0.049222
1576.6639,0.049975
1578.5276,0.047989
1580.3912,0.046898
1582.2549,0.046525
1584.1186,0.046334
1585.9822,0.046406
1587.8459,0.046750
1589.7096,0.047122
1591.5733,0.047484
1593.4369,0.048345
1595.3006,0.049435
1597.1643,0.050181
1599.0279,0.051008
1600.8916,0.052362
1602.7553,0.054124
1604.6189,0.055611
1606.4826,0.057194
1608.3463,0.059069
1610.2099,0.060591
1612.0736,0.061706
1613.9373,0.063286
1615.8010,0.067520
1617.6646,0.069947
1619.5283,0.069067
1621.3920,0.070497
1623.2556,0.073501
1625.1193,0.074390
1626.9830,0.075590
1628.8466,0.076075
1630.7103,0.074957
1632.5740,0.074883
1634.4376,0.078168
1636.3013,0.079853
1638.1650,0.076975
1640.0286,0.074817
1641.8923,0.073096
1643.7560,0.072450
1645.6197,0.073819
1647.4833,0.072531
1649.3470,0.068363
1651.2107,0.068972
1653.0743,0.072938
1654.9380,0.067866
1656.8017,0.063858
1658.6653,0.061560
1660.5290,0.059914
1662.3927,0.058749
1664.2563,0.055880
1666.1200,0.053396
1667.9837,0.052873
1669.8474,0.051582
1671.7110,0.048549
1673.5747,0.047199
1675.4384,0.046071
1677.3020,0.042851
1679.1657,0.040617
1681.0294,0.038958
1682.8930,0.039024
1684.7567,0.037513
1686.6204,0.033777
1688.4840,0.031646
1690.3477,0.029402
1692.2114,0.027006
1694.0750,0.025631
1695.9387,0.024073
1697.8024,0.021869
1699.6661,0.021434
1701.5297,0.019012
1703.3934,0.017043
1705.2571,0.016113
1707.1207,0.014722
1708.9844,0.013623
1710.8481,0.012878
1712.7117,0.012302
1714.5754,0.011917
1716.4391,0.011806
1718.3027,0.011268
1720.1664,0.010208
1722.0301,0.009722
1723.8937,0.009078
1725.7574,0.008458
1727.6211,0.008192
1729.4848,0.008064
1731.3484,0.007933
1733.2121,0.008191
1735.0758,0.007459
1736.9394,0.006882
1738.8031,0.006996
1740.6668,0.006690
1742.5304,0.006343
1744.3941,0.005951
1746.2578,0.005717
1748.1214,0.005618
1749.9851,0.005480
1751.8488,0.004982
1753.7125,0.004173
1755.5761,0.003702
1757.4398,0.003451
1759.3035,0.003339
1761.1671,0.003108
1763.0308,0.002612
1764.8945,0.002426
1766.7581,0.002390
1768.6218,0.002051
1770.4855,0.001958
1772.3491,0.002308
1774.2128,0.002113
1776.0765,0.001757
1777.9401,0.001632
1779.8038,0.001732
1781.6675,0.001668
1783.5312,0.001738
1785.3948,0.001610
1787.2585,0.001398
1789.1222,0.001410
1790.9858,0.001539
1792.8495,0.001386
1794.7132,0.001306
1796.5768,0.001333
1798.4405,0.001360
1800.3042,0.001416
1802.1678,0.001226
1804.0315,0.000956
1805.8952,0.000810
1807.7589,0.000787
1809.6225,0.000868
1811.4862,0.000825
1813.3499,0.000662
1815.2135,0.000575
1817.0772,0.000743
1818.9409,0.000862
1820.8045,0.000670
1822.6682,0.000659
1824.5319,0.000953
1826.3955,0.001013
1828.2592,0.000992
1830.1229,0.000601
1831.9865,0.000470
1833.8502,0.000673
1835.7139,0.000500
1837.5776,0.000301
1839.4412,0.000336
1841.3049,0.000549
1843.1686,0.000799
1845.0322,0.000871
1846.8959,0.000587
1848.7596,0.000444
1850.6232,0.000398
1852.4869,0.000214
1854.3506,0.000380
1856.2142,0.000635
1858.0779,0.000410
1859.9416,0.000295
1861.8052,0.000474
1863.6689,0.000531
1865.5326,0.000321
1867.3963,0.000515
1869.2599,0.000527
1871.1236,0.000297
1872.9873,0.000483
1874.8509,0.000375
1876.7146,0.000106
1878.5783,0.000421
1880.4419,0.000599
1882.3056,0.000367
1884.1693,0.000454
1886.0329,0.000787
1887.8966,0.000852
1889.7603,0.000492
1891.6240,0.000136
1893.4876,0.000106
1895.3513,0.000251
1897.2150,0.000426
1899.0786,0.000445
1900.9423,0.000636
1902.8060,0.000919
1904.6696,0.000947
1906.5333,0.000830
1908.3970,0.000692
1910.2606,0.000229
1912.1243,0.000233
1913.9880,0.000258
1915.8516,0.000176
1917.7153,0.000349
1919.5790,0.000566
1921.4427,0.000622
1923.3063,0.000437
1925.1700,0.000119
1927.0337,0.000335
1928.8973,0.000910
1930.7610,0.001037
1932.6247,0.001154
1934.4883,0.001116
1936.3520,0.000279
1938.2157,0.000143
1940.0793,0.000662
1941.9430,0.000219
1943.8067,0.000132
1945.6704,0.000909
1947.5340,0.000880
1949.3977,0.000222
1951.2614,0.000164
1953.1250,0.001048
1954.9887,0.001436
1956.8524,0.000748
1958.7160,0.000954
1960.5797,0.001065
1962.4434,-0.000128
1964.3070,-0.000021
1966.1707,0.001337
1968.0344,0.001991
1969.8980,0.001767
1971.7617,0.001076
1973.6254,0.001210
1975.4891,0.002283
1977.3527,0.002973
1979.2164,0.003370
1981.0801,0.002858
1982.9437,0.003197
1984.8074,0.003415
1986.6711,0.002484
1988.5347,0.002559
1990.3984,0.002289
1992.2621,0.002024
1994.1257,0.002727
1995.9894,0.002764
1997.8531,0.002337
1999.7167,0.002280
2001.5804,0.001906
2003.4441,0.001394
2005.3078,0.001362
2007.1714,0.000856
2009.0351,0.000762
2010.8988,0.001625
2012.7624,0.002106
2014.6261,0.002175
2016.4898,0.002565
2018.3534,0.003193
2020.2171,0.003928
2022.0808,0.004359
2023.9444,0.003833
2025.8081,0.003088
2027.6718,0.002967
2029.5355,0.003137
2031.3991,0.003280
2033.2628,0.003493
2035.1265,0.004000
2036.9901,0.005513
2038.8538,0.007258
2040.7175,0.006950
2042.5811,0.005654
2044.4448,0.005200
2046.3085,0.005452
2048.1721,0.005684
2050.0358,0.006378
2051.8995,0.006935
2053.7631,0.006859
2055.6268,0.007009
2057.4905,0.006637
2059.3542,0.005937
2061.2178,0.006285
2063.0815,0.006769
2064.9452,0.006536
2066.8088,0.006250
2068.6725,0.006434
2070.5362,0.006598
2072.3998,0.007063
2074.2635,0.007256
2076.1272,0.006272
2077.9908,0.005389
2079.8545,0.005323
2081.7182,0.005458
2083.5819,0.005163
2085.4455,0.004541
2087.3092,0.003963
2089.1729,0.004068
2091.0365,0.004305
2092.9002,0.003428
2094.7639,0.003303
2096.6275,0.004662
2098.4912,0.004500
2100.3549,0.004008
2102.2185,0.004322
2104.0822,0.004612
2105.9459,0.004501
2107.8095,0.004519
2109.6732,0.004775
2111.5369,0.003904
2113.4006,0.003218
2115.2642,0.003492
2117.1279,0.003863
2118.9916,0.003770
2120.8552,0.003677
2122.7189,0.003829
2124.5826,0.003451
2126.4462,0.002873
2128.3099,0.003360
2130.1736,0.003443
2132.0372,0.002795
2133.9009,0.003048
2135.7646,0.002993
2137.6282,0.002759
2139.4919,0.003181
2141.3556,0.003887
2143.2193,0.003354
2145.0829,0.002587
2146.9466,0.003442
2148.8103,0.004473
2150.6739,0.003754
2152.5376,0.003127
2154.4013,0.003873
2156.2649,0.004037
2158.1286,0.004335
2159.9923,0.005663
2161.8559,0.006419
2163.7196,0.006590
2165.5833,0.006171
2167.4470,0.006054
2169.3106,0.005507
2171.1743,0.003525
2173.0380,0.003114
2174.9016,0.004399
2176.7653,0.005783
2178.6290,0.005474
2180.4926,0.004442
2182.3563,0.005119
2184.2200,0.005158
2186.0836,0.004752
2187.9473,0.005023
2189.8110,0.005104
2191.6746,0.004988
2193.5383,0.004411
2195.4020,0.004099
2197.2657,0.004753
2199.1293,0.004969
2200.9930,0.004585
2202.8567,0.004571
2204.7203,0.004539
2206.5840,0.004752
2208.4477,0.004232
2210.3113,0.003591
2212.1750,0.003425
2214.0387,0.004351
2215.9023,0.004920
2217.7660,0.004744
2219.6297,0.005126
2221.4934,0.004928
2223.3570,0.004615
2225.2207,0.004604
2227.0844,0.004421
2228.9480,0.003881
2230.8117,0.003800
2232.6754,0.003737
2234.5390,0.003868
2236.4027,0.004477
2238.2664,0.004227
2240.1300,0.004006
2241.9937,0.004426
2243.8574,0.004398
2245.7210,0.004382
2247.5847,0.004261
2249.4484,0.004122
2251.3121,0.003793
2253.1757,0.003602
2255.0394,0.003657
2256.9031,0.003922
2258.7667,0.004307
2260.6304,0.003827
2262.4941,0.003381
2264.3577,0.003740
2266.2214,0.004149
2268.0851,0.004446
2269.9487,0.004347
2271.8124,0.003911
2273.6761,0.004070
2275.5397,0.004448
2277.4034,0.004194
2279.2671,0.004546
2281.1308,0.004920
2282.9944,0.004611
2284.8581,0.004298
2286.7218,0.004175
2288.5854,0.004052
2290.4491,0.004032
2292.3128,0.003979
2294.1764,0.003827
2296.0401,0.003798
2297.9038,0.003644
2299.7674,0.003525
2301.6311,0.003667
2303.4948,0.003409
2305.3585,0.003457
2307.2221,0.003969
2309.0858,0.003866
2310.9495,0.003552
2312.8131,0.003666
2314.6768,0.003794
2316.5405,0.003930
2318.4041,0.004362
2320.2678,0.004242
2322.1315,0.003828
2323.9951,0.003906
2325.8588,0.003534
2327.7225,0.003272
2329.5861,0.003264
2331.4498,0.002817
2333.3135,0.002692
2335.1772,0.003048
2337.0408,0.003628
2338.9045,0.004199
2340.7682,0.004122
2342.6318,0.003870
2344.4955,0.003614
2346.3592,0.003217
2348.2228,0.003190
2350.0865,0.003196
2351.9502,0.002971
2353.8138,0.003200
2355.6775,0.003303
2357.5412,0.003284
2359.4049,0.003685
2361.2685,0.003786
2363.1322,0.003813
2364.9959,0.004021
2366.8595,0.004136
2368.7232,0.004462
2370.5869,0.004528
2372.4505,0.004231
2374.3142,0.003823
2376.1779,0.003556
2378.0415,0.003457
2379.9052,0.003540
2381.7689,0.003416
2383.6325,0.003176
2385.4962,0.003168
2387.3599,0.003294
2389.2236,0.003195
2391.0872,0.003162
2392.9509,0.003128
2394.8146,0.003128
2396.6782,0.003389
2398.5419,0.003344
2400.4056,0.003265
2402.2692,0.003492
2404.1329,0.003331
2405.9966,0.003321
2407.8602,0.003314
2409.7239,0.003101
2411.5876,0.003116
2413.4512,0.003325
2415.3149,0.003342
2417.1786,0.003124
2419.0423,0.002931
2420.9059,0.003427
2422.7696,0.003649
2424.6333,0.003601
2426.4969,0.003720
2428.3606,0.003838
2430.2243,0.003758
2432.0879,0.003774
2433.9516,0.003829
2435.8153,0.003783
2437.6789,0.003818
2439.5426,0.003767
2441.4063,0.003738
2443.2700,0.003830
2445.1336,0.003743
2446.9973,0.003659
2448.8610,0.003947
2450.7246,0.004094
2452.5883,0.004082
2454.4520,0.003964
2456.3156,0.003969
2458.1793,0.004211
2460.0430,0.004350
2461.9066,0.004207
2463.7703,0.004183
2465.6340,0.004155
2467.4976,0.003904
2469.3613,0.003885
2471.2250,0.003871
2473.0887,0.003974
2474.9523,0.004364
2476.8160,0.004364
2478.6797,0.004113
2480.5433,0.003873
2482.4070,0.003829
2484.2707,0.004092
2486.1343,0.004275
2487.9980,0.004054
2489.8617,0.004117
2491.7253,0.004150
2493.5890,0.004253
2495.4527,0.004255
2497.3164,0.004398
2499.1800,0.004609
2501.0437,0.004516
2502.9074,0.004578
2504.7710,0.004659
2506.6347,0.004841
2508.4984,0.004537
2510.3620,0.004467
2512.2257,0.004643
2514.0894,0.004508
2515.9530,0.004495
2517.8167,0.004480
2519.6804,0.004575
2521.5440,0.004660
2523.4077,0.004600
2525.2714,0.004595
2527.1351,0.004807
2528.9987,0.004940
2530.8624,0.004820
2532.7261,0.004850
2534.5897,0.005131
2536.4534,0.005044
2538.3171,0.004754
2540.1807,0.004668
2542.0444,0.004954
2543.9081,0.005050
2545.7717,0.005154
2547.6354,0.005278
2549.4991,0.005261
2551.3627,0.005253
2553.2264,0.005146
2555.0901,0.005072
2556.9538,0.005140
2558.8174,0.005198
2560.6811,0.005379
2562.5448,0.005471
2564.4084,0.005601
2566.2721,0.005544
2568.1358,0.005577
2569.9994,0.005623
2571.8631,0.005476
2573.7268,0.005298
2575.5904,0.005352
2577.4541,0.005941
2579.3178,0.006188
2581.1815,0.005948
2583.0451,0.005980
2584.9088,0.005978
2586.7725,0.005915
2588.6361,0.006086
2590.4998,0.006026
2592.3635,0.005989
2594.2271,0.006344
2596.0908,0.006816
2597.9545,0.007077
2599.8181,0.007006
2601.6818,0.006896
2603.5455,0.006758
2605.4091,0.006574
2607.2728,0.006802
2609.1365,0.007226
2611.0002,0.007168
2612.8638,0.007156
2614.7275,0.007154
2616.5912,0.007232
2618.4548,0.007409
2620.3185,0.007431
2622.1822,0.007368
2624.0458,0.007588
2625.9095,0.007865
2627.7732,0.007740
2629.6368,0.007599
2631.5005,0.007889
2633.3642,0.008120
2635.2279,0.008250
2637.0915,0.008175
2638.9552,0.008037
2640.8189,0.008120
2642.6825,0.008360
2644.5462,0.008373
2646.4099,0.008350
2648.2735,0.008560
2650.1372,0.008798
2652.0009,0.008891
2653.8645,0.008894
2655.7282,0.008921
2657.5919,0.009026
2659.4555,0.009023
2661.3192,0.008795
2663.1829,0.008733
2665.0466,0.009040
2666.9102,0.009076
2668.7739,0.009026
2670.6376,0.009205
2672.5012,0.009416
2674.3649,0.009506
2676.2286,0.009634
2678.0922,0.009719
2679.9559,0.009656
2681.8196,0.009684
2683.6832,0.009741
2685.5469,0.009759
2687.4106,0.009906
2689.2742,0.010084
2691.1379,0.010146
2693.0016,0.010080
2694.8653,0.010204
2696.7289,0.010424
2698.5926,0.010382
2700.4563,0.010405
2702.3199,0.010680
2704.1836,0.010854
2706.0473,0.010919
2707.9109,0.011036
2709.7746,0.011095
2711.6383,0.011166
2713.5019,0.011430
2715.3656,0.011615
2717.2293,0.011683
2719.0930,0.011855
2720.9566,0.011917
2722.8203,0.011976
2724.6840,0.012171
2726.5476,0.012230
2728.4113,0.012180
2730.2750,0.012266
2732.1386,0.012631
2734.0023,0.012923
2735.8660,0.012965
2737.7296,0.012927
2739.5933,0.013013
2741.4570,0.013096
2743.3206,0.013304
2745.1843,0.013496
2747.0480,0.013640
2748.9117,0.013714
2750.7753,0.013881
2752.6390,0.014056
2754.5027,0.014009
2756.3663,0.014126
2758.2300,0.014353
2760.0937,0.014405
2761.9573,0.014725
2763.8210,0.014898
2765.6847,0.014913
2767.5483,0.015076
2769.4120,0.015301
2771.2757,0.015436
2773.1394,0.015655
2775.0030,0.015905
2776.8667,0.016071
2778.7304,0.016094
2780.5940,0.016373
2782.4577,0.016472
2784.3214,0.016363
2786.1850,0.016579
2788.0487,0.016869
2789.9124,0.017015
2791.7760,0.017238
2793.6397,0.017557
2795.5034,0.017617
2797.3670,0.017696
2799.2307,0.017955
2801.0944,0.018154
2802.9581,0.018268
2804.8217,0.018444
2806.6854,0.018731
2808.5491,0.019064
2810.4127,0.019236
2812.2764,0.019243
2814.1401,0.019279
2816.0037,0.019502
2817.8674,0.019796
2819.7311,0.020043
2821.5947,0.020401
2823.4584,0.020512
2825.3221,0.020584
2827.1857,0.020863
2829.0494,0.021078
2830.9131,0.021160
2832.7768,0.021394
2834.6404,0.021780
2836.5041,0.022190
2838.3678,0.022545
2840.2314,0.022922
2842.0951,0.023421
2843.9588,0.023926
2845.8224,0.024412
2847.6861,0.025098
2849.5498,0.025519
2851.4134,0.025770
2853.2771,0.026204
2855.1408,0.026515
2857.0045,0.026420
2858.8681,0.026382
2860.7318,0.026466
2862.5955,0.026593
2864.4591,0.026802
2866.3228,0.027181
2868.1865,0.027514
2870.0501,0.027877
2871.9138,0.028269
2873.7775,0.028335
2875.6411,0.028220
2877.5048,0.028371
2879.3685,0.028600
2881.2321,0.028749
2883.0958,0.028919
2884.9595,0.029127
2886.8232,0.029016
2888.6868,0.028884
2890.5505,0.029064
2892.4142,0.029422
2894.2778,0.029553
2896.1415,0.029862
2898.0052,0.030058
2899.8688,0.030156
2901.7325,0.030506
2903.5962,0.030923
2905.4598,0.031260
2907.3235,0.031623
2909.1872,0.031970
2911.0509,0.032254
2912.9145,0.032620
2914.7782,0.033536
2916.6419,0.034228
2918.5055,0.034543
2920.3692,0.034973
2922.2329,0.035303
2924.0965,0.035395
2925.9602,0.035423
2927.8239,0.035256
2929.6875,0.035264
2931.5512,0.035317
2933.4149,0.035063
2935.2785,0.034728
2937.1422,0.034787
2939.0059,0.034705
2940.8696,0.034543
2942.7332,0.034406
2944.5969,0.034233
2946.4606,0.034002
2948.3242,0.033940
2950.1879,0.034056
2952.0516,0.034510
2953.9152,0.035066
2955.7789,0.035206
2957.6426,0.035106
2959.5062,0.035162
2961.3699,0.034973
2963.2336,0.034841
2965.0972,0.034803
2966.9609,0.034574
2968.8246,0.034360
2970.6883,0.034414
2972.5519,0.034203
2974.4156,0.033813
2976.2793,0.033581
2978.1429,0.033505
2980.0066,0.033405
2981.8703,0.033166
2983.7339,0.032681
2985.5976,0.032506
2987.4613,0.032625
2989.3249,0.032850
2991.1886,0.032979
2993.0523,0.033015
2994.9160,0.032893
2996.7796,0.032863
2998.6433,0.032961
3000.5070,0.033047
3002.3706,0.033143
3004.2343,0.033482
3006.0980,0.033571
3007.9616,0.033751
3009.8253,0.034206
3011.6890,0.034424
3013.5526,0.034541
3015.4163,0.034744
3017.2800,0.034914
3019.1436,0.035233
3021.0073,0.035737
3022.8710,0.036173
3024.7347,0.036344
3026.5983,0.036590
3028.4620,0.036821
3030.3257,0.037234
3032.1893,0.037700
3034.0530,0.037849
3035.9167,0.038132
3037.7803,0.038572
3039.6440,0.038699
3041.5077,0.038795
3043.3713,0.039013
3045.2350,0.039533
3047.0987,0.040162
3048.9624,0.040647
3050.8260,0.040602
3052.6897,0.040694
3054.5534,0.041247
3056.4170,0.041529
3058.2807,0.041448
3060.1444,0.041666
3062.0080,0.042046
3063.8717,0.042461
3065.7354,0.042695
3067.5990,0.042789
3069.4627,0.042814
3071.3264,0.042795
3073.1900,0.042989
3075.0537,0.043242
3076.9174,0.043373
3078.7811,0.043600
3080.6447,0.043717
3082.5084,0.043963
3084.3721,0.044192
3086.2357,0.044124
3088.0994,0.044061
3089.9631,0.044324
3091.8267,0.044513
3093.6904,0.044509
3095.5541,0.044529
3097.4177,0.044549
3099.2814,0.044696
3101.1451,0.044949
3103.0087,0.045055
3104.8724,0.045489
3106.7361,0.045770
3108.5998,0.045647
3110.4634,0.045662
3112.3271,0.045949
3114.1908,0.046180
3116.0544,0.046367
3117.9181,0.046858
3119.7818,0.047343
3121.6454,0.047288
3123.5091,0.047051
3125.3728,0.047209
3127.2364,0.047850
3129.1001,0.048314
3130.9638,0.048622
3132.8275,0.048776
3134.6911,0.048604
3136.5548,0.048883
3138.4185,0.049706
3140.2821,0.050088
3142.1458,0.050319
3144.0095,0.050727
3145.8731,0.050959
3147.7368,0.051091
3149.6005,0.051467
3151.4641,0.051848
3153.3278,0.052188
3155.1915,0.052513
3157.0551,0.053012
3158.9188,0.053565
3160.7825,0.053833
3162.6462,0.053989
3164.5098,0.054559
3166.3735,0.055116
3168.2372,0.055266
3170.1008,0.055070
3171.9645,0.055065
3173.8282,0.055578
3175.6918,0.056111
3177.5555,0.056617
3179.4192,0.057202
3181.2828,0.057469
3183.1465,0.057486
3185.0102,0.057622
3186.8739,0.057952
3188.7375,0.058064
3190.6012,0.058284
3192.4649,0.058644
3194.3285,0.058882
3196.1922,0.059101
3198.0559,0.059345
3199.9195,0.059481
3201.7832,0.059695
3203.6469,0.060162
3205.5105,0.060448
3207.3742,0.060529
3209.2379,0.060737
3211.1015,0.060841
3212.9652,0.060754
3214.8289,0.060756
3216.6926,0.061022
3218.5562,0.061209
3220.4199,0.061052
3222.2836,0.061159
3224.1472,0.061640
3226.0109,0.061969
3227.8746,0.062119
3229.7382,0.062313
3231.6019,0.062807
3233.4656,0.062924
3235.3292,0.062749
3237.1929,0.063139
3239.0566,0.063623
3240.9202,0.063407
3242.7839,0.063192
3244.6476,0.063531
3246.5113,0.063688
3248.3749,0.063631
3250.2386,0.063935
3252.1023,0.064341
3253.9659,0.064374
3255.8296,0.064025
3257.6933,0.064169
3259.5569,0.064883
3261.4206,0.064868
3263.2843,0.064994
3265.1479,0.065327
3267.0116,0.065369
3268.8753,0.065216
3270.7390,0.065112
3272.6026,0.065278
3274.4663,0.065725
3276.3300,0.065865
3278.1936,0.065605
3280.0573,0.065309
3281.9210,0.065101
3283.7846,0.065022
3285.6483,0.064884
3287.5120,0.064624
3289.3756,0.064428
3291.2393,0.064313
3293.1030,0.064379
3294.9666,0.064002
3296.8303,0.063843
3298.6940,0.063571
3300.5577,0.063354
3302.4213,0.063570
3304.2850,0.063293
3306.1487,0.062621
3308.0123,0.062413
3309.8760,0.062592
3311.7397,0.062638
3313.6033,0.062357
3315.4670,0.062081
3317.3307,0.062309
3319.1943,0.062486
3321.0580,0.062105
3322.9217,0.061557
3324.7854,0.061245
3326.6490,0.061235
3328.5127,0.060939
3330.3764,0.060884
3332.2400,0.060980
3334.1037,0.060991
3335.9674,0.060720
3337.8310,0.060926
3339.6947,0.061131
3341.5584,0.060426
3343.4220,0.060081
3345.2857,0.060142
3347.1494,0.060030
3349.0130,0.060185
3350.8767,0.060178
3352.7404,0.060174
3354.6041,0.059944
3356.4677,0.059644
3358.3314,0.059562
3360.1951,0.059566
3362.0587,0.059048
3363.9224,0.058427
3365.7861,0.058472
3367.6497,0.058789
3369.5134,0.058826
3371.3771,0.058708
3373.2407,0.058301
3375.1044,0.058312
3376.9681,0.058333
3378.8317,0.058174
3380.6954,0.058087
3382.5591,0.057578
3384.4228,0.056947
3386.2864,0.057074
3388.1501,0.056876
3390.0138,0.056596
3391.8774,0.056596
3393.7411,0.056662
3395.6048,0.056630
3397.4684,0.056690
3399.3321,0.056373
3401.1958,0.055929
3403.0594,0.055857
3404.9231,0.055847
3406.7868,0.055438
3408.6505,0.055269
3410.5141,0.054814
3412.3778,0.054711
3414.2415,0.054490
3416.1051,0.054255
3417.9688,0.053518
3419.8325,0.052743
3421.6961,0.052718
3423.5598,0.053061
3425.4235,0.053120
3427.2871,0.052962
3429.1508,0.052261
3431.0145,0.051288
3432.8781,0.051007
3434.7418,0.051190
3436.6055,0.050784
3438.4692,0.050705
3440.3328,0.050187
3442.1965,0.050239
3444.0602,0.050534
3445.9238,0.050211
3447.7875,0.049969
3449.6512,0.049580
3451.5148,0.049073
3453.3785,0.048249
3455.2422,0.047304
3457.1058,0.047288
3458.9695,0.047353
3460.8332,0.047082
3462.6969,0.046394
3464.5605,0.045587
3466.4242,0.045587
3468.2879,0.046236
3470.1515,0.045861
3472.0152,0.045098
3473.8789,0.044668
3475.7425,0.044688
3477.6062,0.044939
3479.4699,0.044296
3481.3335,0.043503
3483.1972,0.042559
3485.0609,0.041676
3486.9245,0.041698
3488.7882,0.041394
3490.6519,0.041016
3492.5156,0.040536
3494.3792,0.039855
3496.2429,0.040050
3498.1066,0.039996
3499.9702,0.038860
3501.8339,0.038417
3503.6976,0.038686
3505.5612,0.038300
3507.4249,0.037481
3509.2886,0.037316
3511.1522,0.036242
3513.0159,0.035611
3514.8796,0.035661
3516.7432,0.035187
3518.6069,0.034481
3520.4706,0.034544
3522.3343,0.034737
3524.1979,0.034087
3526.0616,0.033444
3527.9253,0.033352
3529.7889,0.032200
3531.6526,0.031133
3533.5163,0.030830
3535.3799,0.030837
3537.2436,0.030363
3539.1073,0.030003
3540.9709,0.030012
3542.8346,0.029502
3544.6983,0.028440
3546.5620,0.028100
3548.4256,0.027600
3550.2893,0.027274
3552.1530,0.026836
3554.0166,0.026515
3555.8803,0.026263
3557.7440,0.025846
3559.6076,0.025052
3561.4713,0.023787
3563.3350,0.023417
3565.1986,0.023581
3567.0623,0.023186
3568.9260,0.022361
3570.7896,0.022021
3572.6533,0.021937
3574.5170,0.021031
3576.3807,0.020679
3578.2443,0.020706
3580.1080,0.020610
3581.9717,0.019938
3583.8353,0.018957
3585.6990,0.018905
3587.5627,0.018948
3589.4263,0.018205
3591.2900,0.017575
3593.1537,0.017014
3595.0173,0.016807
3596.8810,0.016219
3598.7447,0.015457
3600.6084,0.014770
3602.4720,0.014269
3604.3357,0.014124
3606.1994,0.013665
3608.0630,0.013474
3609.9267,0.013278
3611.7904,0.012786
3613.6540,0.012535
3615.5177,0.012172
3617.3814,0.011932
3619.2450,0.011441
3621.1087,0.010173
3622.9724,0.009765
3624.8360,0.009630
3626.6997,0.009288
3628.5634,0.008506
3630.4271,0.007239
3632.2907,0.006821
3634.1544,0.007240
3636.0181,0.007118
3637.8817,0.006291
3639.7454,0.005351
3641.6091,0.004494
3643.4727,0.004240
3645.3364,0.004807
3647.2001,0.004295
3649.0637,0.003008
3650.9274,0.002663
3652.7911,0.002445
3654.6547,0.002159
3656.5184,0.001973
3658.3821,0.001130
3660.2458,0.000581
3662.1094,0.000564
3663.9731,0.000016
3665.8368,-0.000728
3667.7004,-0.001026
3669.5641,-0.001423
3671.4278,-0.001555
3673.2914,-0.001015
3675.1551,-0.000998
3677.0188,-0.001597
3678.8824,-0.002486
3680.7461,-0.003203
3682.6098,-0.003663
3684.4735,-0.003594
3686.3371,-0.003242
3688.2008,-0.003500
3690.0645,-0.003918
3691.9281,-0.004800
3693.7918,-0.004509
3695.6555,-0.003898
3697.5191,-0.004231
3699.3828,-0.004489
3701.2465,-0.004647
3703.1101,-0.005144
3704.9738,-0.005290
3706.8375,-0.005026
3708.7011,-0.004839
3710.5648,-0.004856
3712.4285,-0.005385
3714.2922,-0.005859
3716.1558,-0.005228
3718.0195,-0.004821
3719.8832,-0.005052
3721.7468,-0.005345
3723.6105,-0.005155
3725.4742,-0.005096
3727.3378,-0.005421
3729.2015,-0.005757
3731.0652,-0.005764
3732.9288,-0.005722
3734.7925,-0.005892
3736.6562,-0.006143
3738.5199,-0.005681
3740.3835,-0.005478
3742.2472,-0.005121
3744.1109,-0.005854
3745.9745,-0.006483
3747.8382,-0.005872
3749.7019,-0.005729
3751.5655,-0.005978
3753.4292,-0.006421
3755.2929,-0.006398
3757.1565,-0.006026
3759.0202,-0.005876
3760.8839,-0.006136
3762.7475,-0.006100
3764.6112,-0.005981
3766.4749,-0.005987
3768.3386,-0.006243
3770.2022,-0.006258
3772.0659,-0.006183
3773.9296,-0.006163
3775.7932,-0.006098
3777.6569,-0.006004
3779.5206,-0.006590
3781.3842,-0.006873
3783.2479,-0.006648
3785.1116,-0.006425
3786.9752,-0.006405
3788.8389,-0.006269
3790.7026,-0.006387
3792.5662,-0.006845
3794.4299,-0.006811
3796.2936,-0.006377
3798.1573,-0.005938
3800.0209,-0.005853
3801.8846,-0.006462
3803.7483,-0.006253
3805.6119,-0.006099
3807.4756,-0.006376
3809.3393,-0.006496
3811.2029,-0.006216
3813.0666,-0.006257
3814.9303,-0.006620
3816.7939,-0.006955
3818.6576,-0.006458
3820.5213,-0.006238
3822.3850,-0.006651
3824.2486,-0.006533
3826.1123,-0.006396
3827.9760,-0.006825
3829.8396,-0.007106
3831.7033,-0.007076
3833.5670,-0.006769
3835.4306,-0.006504
3837.2943,-0.006393
3839.1580,-0.006359
3841.0216,-0.006480
3842.8853,-0.006589
3844.7490,-0.006574
3846.6126,-0.006560
3848.4763,-0.006692
3850.3400,-0.006711
3852.2037,-0.006299
3854.0673,-0.006340
3855.9310,-0.006764
3857.7947,-0.006725
3859.6583,-0.006566
3861.5220,-0.006631
3863.3857,-0.006452
3865.2493,-0.006458
3867.1130,-0.006611
3868.9767,-0.006385
3870.8403,-0.006287
3872.7040,-0.006362
3874.5677,-0.006569
3876.4314,-0.006374
3878.2950,-0.006335
3880.1587,-0.006646
3882.0224,-0.007013
3883.8860,-0.006764
3885.7497,-0.006817
3887.6134,-0.006748
3889.4770,-0.006222
3891.3407,-0.006044
3893.2044,-0.006553
3895.0680,-0.007018
3896.9317,-0.006913
3898.7954,-0.006765
3900.6590,-0.006657
3902.5227,-0.006538
3904.3864,-0.006427
3906.2501,-0.006600
3908.1137,-0.006648
3909.9774,-0.006304
3911.8411,-0.005988
3913.7047,-0.005726
3915.5684,-0.006281
3917.4321,-0.006721
3919.2957,-0.006579
3921.1594,-0.006595
3923.0231,-0.006791
3924.8867,-0.006419
3926.7504,-0.005831
3928.6141,-0.006030
3930.4777,-0.006491
3932.3414,-0.006629
3934.2051,-0.006662
3936.0688,-0.006581
3937.9324,-0.006471
3939.7961,-0.006608
3941.6598,-0.006532
3943.5234,-0.006494
3945.3871,-0.006610
3947.2508,-0.006516
3949.1144,-0.006510
3950.9781,-0.006498
3952.8418,-0.006364
3954.7054,-0.006480
3956.5691,-0.006361
3958.4328,-0.006172
3960.2965,-0.006301
3962.1601,-0.006687
3964.0238,-0.006822
3965.8875,-0.006615
3967.7511,-0.006419
3969.6148,-0.006529
3971.4785,-0.006655
3973.3421,-0.006686
3975.2058,-0.006452
3977.0695,-0.006408
3978.9331,-0.006254
3980.7968,-0.006001
3982.6605,-0.006016
3984.5241,-0.006233
3986.3878,-0.006569
3988.2515,-0.006581
3990.1152,-0.006772
3991.9788,-0.006876
3993.8425,-0.006491
3995.7062,-0.006293
3997.5698,-0.006177
3999.4335,-0.006352
