Wavenumber,Intensity
650.4205,0.106040
652.2841,0.106470
654.1478,0.105715
656.0115,0.103986
657.8751,0.101382
659.7388,0.100183
661.6025,0.101789
663.4661,0.101341
665.3298,0.100311
667.1935,0.101307
669.0571,0.101615
670.9208,0.099561
672.7845,0.097607
674.6481,0.096469
676.5118,0.096569
678.3755,0.097400
680.2392,0.096362
682.1028,0.094549
683.9665,0.094507
685.8302,0.093991
687.6938,0.093065
689.5575,0.092706
691.4212,0.092018
693.2848,0.090883
695.1485,0.089801
697.0122,0.089943
698.8758,0.090364
700.7395,0.089587
702.6032,0.088999
704.4669,0.088281
706.3305,0.087199
708.1942,0.086335
710.0579,0.085517
711.9215,0.084390
713.7852,0.083180
715.6489,0.082768
717.5125,0.083010
719.3762,0.082038
721.2399,0.080516
723.1035,0.079962
724.9672,0.079462
726.8309,0.078826
728.6945,0.078346
730.5582,0.077586
732.4219,0.076800
734.2856,0.076082
736.1492,0.075661
738.0129,0.075601
739.8766,0.075498
741.7402,0.075372
743.6039,0.074945
745.4676,0.074687
747.3312,0.074383
749.1949,0.073485
751.0586,0.072836
752.9222,0.072371
754.7859,0.071584
756.6496,0.071104
758.5132,0.071046
760.3769,0.070930
762.2406,0.070791
764.1043,0.070452
765.9679,0.069818
767.8316,0.069129
769.6953,0.068394
771.5589,0.067630
773.4226,0.067219
775.2863,0.066955
777.1499,0.066272
779.0136,0.066093
780.8773,0.065749
782.7409,0.064564
784.6046,0.063963
786.4683,0.063963
788.3320,0.063547
790.1956,0.062698
792.0593,0.062124
793.9230,0.061940
795.7866,0.061660
797.6503,0.061715
799.5140,0.061775
801.3776,0.061675
803.2413,0.061649
805.1050,0.061712
806.9686,0.061699
808.8323,0.061331
810.6960,0.061085
812.5596,0.061052
814.4233,0.060791
816.2870,0.060503
818.1507,0.060449
820.0143,0.060106
821.8780,0.059532
823.7417,0.059115
825.6053,0.058747
827.4690,0.058359
829.3327,0.058018
831.1963,0.057647
833.0600,0.057164
834.9237,0.056850
836.7873,0.056667
838.6510,0.056839
840.5147,0.056832
842.3784,0.056226
844.2420,0.055969
846.1057,0.056144
847.9694,0.056115
849.8330,0.056079
851.6967,0.056206
853.5604,0.056403
855.4240,0.056419
857.2877,0.056471
859.1514,0.056724
861.0150,0.057034
862.8787,0.057206
864.7424,0.057475
866.6060,0.057884
868.4697,0.058120
870.3334,0.058443
872.1971,0.058926
874.0607,0.058848
875.9244,0.058499
877.7881,0.058353
879.6517,0.058165
881.5154,0.057898
883.3791,0.057588
885.2427,0.057326
887.1064,0.057232
888.9701,0.057260
890.8337,0.057411
892.6974,0.057676
894.5611,0.057905
896.4247,0.058057
898.2884,0.058069
900.1521,0.057773
902.0158,0.057693
903.8794,0.058008
905.7431,0.058332
907.6068,0.058578
909.4704,0.058985
911.3341,0.059689
913.1978,0.060405
915.0614,0.060978
916.9251,0.061574
918.7888,0.062184
920.6524,0.062744
922.5161,0.062983
924.3798,0.063165
926.2435,0.063316
928.1071,0.063354
929.9708,0.063445
931.8345,0.063509
933.6981,0.063639
935.5618,0.063892
937.4255,0.063938
939.2891,0.064027
941.1528,0.064299
943.0165,0.064527
944.8801,0.064573
946.7438,0.064433
948.6075,0.064325
950.4711,0.064244
952.3348,0.064219
954.1985,0.064229
956.0622,0.064229
957.9258,0.064593
959.7895,0.065391
961.6532,0.066441
963.5168,0.067600
965.3805,0.068753
967.2442,0.069519
969.1078,0.069757
970.9715,0.069685
972.8352,0.069537
974.6988,0.069518
976.5625,0.069741
978.4262,0.070203
980.2899,0.070904
982.1535,0.071755
984.0172,0.072561
985.8809,0.073305
987.7445,0.074010
989.6082,0.074755
991.4719,0.075684
993.3355,0.076707
995.1992,0.077721
997.0629,0.078693
998.9265,0.079579
1000.7902,0.080407
1002.6539,0.081334
1004.5175,0.082439
1006.3812,0.083742
1008.2449,0.085357
1010.1086,0.087206
1011.9722,0.089289
1013.8359,0.091690
1015.6996,0.094060
1017.5632,0.096139
1019.4269,0.098096
1021.2906,0.099857
1023.1542,0.101248
1025.0179,0.102277
1026.8816,0.103303
1028.7452,0.104568
1030.6089,0.105637
1032.4726,0.106501
1034.3362,0.107219
1036.1999,0.107760
1038.0636,0.108204
1039.9273,0.108418
1041.7909,0.108398
1043.6546,0.108270
1045.5183,0.108160
1047.3819,0.107992
1049.2456,0.107865
1051.1093,0.107964
1052.9729,0.108134
1054.8366,0.108342
1056.7003,0.108720
1058.5639,0.109175
1060.4276,0.109486
1062.2913,0.109791
1064.1550,0.110209
1066.0186,0.110652
1067.8823,0.111028
1069.7460,0.111267
1071.6096,0.111336
1073.4733,0.111213
1075.3370,0.110804
1077.2006,0.109909
1079.0643,0.108330
1080.9280,0.106173
1082.7916,0.103593
1084.6553,0.100868
1086.5190,0.098301
1088.3826,0.095938
1090.2463,0.093911
1092.1100,0.092248
1093.9737,0.090678
1095.8373,0.089250
1097.7010,0.088030
1099.5647,0.087067
1101.4283,0.086347
1103.2920,0.085635
1105.1557,0.085010
1107.0193,0.084674
1108.8830,0.084399
1110.7467,0.084112
1112.6103,0.083829
1114.4740,0.083394
1116.3377,0.082891
1118.2014,0.082307
1120.0650,0.081535
1121.9287,0.080881
1123.7924,0.080374
1125.6560,0.079855
1127.5197,0.079299
1129.3834,0.078649
1131.2470,0.077816
1133.1107,0.076889
1134.9744,0.075896
1136.8380,0.075020
1138.7017,0.074235
1140.5654,0.073505
1142.4290,0.072978
1144.2927,0.072668
1146.1564,0.072558
1148.0201,0.072730
1149.8837,0.072908
1151.7474,0.072984
1153.6111,0.073043
1155.4747,0.073034
1157.3384,0.072814
1159.2021,0.072392
1161.0657,0.071897
1162.9294,0.071206
1164.7931,0.070300
1166.6567,0.069226
1168.5204,0.067940
1170.3841,0.066427
1172.2477,0.064636
1174.1114,0.062687
1175.9751,0.060734
1177.8388,0.059162
1179.7024,0.058090
1181.5661,0.057370
1183.4298,0.056980
1185.2934,0.056849
1187.1571,0.056985
1189.0208,0.057308
1190.8844,0.057868
1192.7481,0.058694
1194.6118,0.059690
1196.4754,0.060980
1198.3391,0.062571
1200.2028,0.064495
1202.0665,0.066445
1203.9301,0.067908
1205.7938,0.068784
1207.6575,0.069096
1209.5211,0.068808
1211.3848,0.068093
1213.2485,0.067184
1215.1121,0.066384
1216.9758,0.065857
1218.8395,0.065705
1220.7031,0.065841
1222.5668,0.066286
1224.4305,0.066987
1226.2941,0.067772
1228.1578,0.068470
1230.0215,0.069097
1231.8852,0.069784
1233.7488,0.070484
1235.6125,0.071078
1237.4762,0.071422
1239.3398,0.071544
1241.2035,0.071578
1243.0672,0.071455
1244.9308,0.071113
1246.7945,0.070604
1248.6582,0.070042
1250.5218,0.069410
1252.3855,0.068709
1254.2492,0.068098
1256.1129,0.067485
1257.9765,0.066739
1259.8402,0.066137
1261.7039,0.065744
1263.5675,0.065422
1265.4312,0.065143
1267.2949,0.064805
1269.1585,0.064540
1271.0222,0.064240
1272.8859,0.063880
1274.7495,0.063635
1276.6132,0.063467
1278.4769,0.063326
1280.3405,0.063130
1282.2042,0.063008
1284.0679,0.062834
1285.9316,0.062658
1287.7952,0.062538
1289.6589,0.062475
1291.5226,0.062509
1293.3862,0.062614
1295.2499,0.062795
1297.1136,0.063101
1298.9772,0.063565
1300.8409,0.064063
1302.7046,0.064484
1304.5682,0.064807
1306.4319,0.065218
1308.2956,0.065668
1310.1592,0.066030
1312.0229,0.066305
1313.8866,0.066456
1315.7503,0.066373
1317.6139,0.066340
1319.4776,0.066304
1321.3413,0.065958
1323.2049,0.065562
1325.0686,0.065384
1326.9323,0.065246
1328.7959,0.065188
1330.6596,0.065164
1332.5233,0.065004
1334.3869,0.064769
1336.2506,0.064696
1338.1143,0.064960
1339.9780,0.065283
1341.8416,0.064997
1343.7053,0.064684
1345.5690,0.064589
1347.4326,0.064428
1349.2963,0.064313
1351.1600,0.064156
1353.0236,0.064165
1354.8873,0.064353
1356.7510,0.064497
1358.6146,0.064815
1360.4783,0.065840
1362.3420,0.067802
1364.2056,0.069402
1366.0693,0.070161
1367.9330,0.070941
1369.7967,0.071566
1371.6603,0.072268
1373.5240,0.073665
1375.3877,0.075040
1377.2513,0.075650
1379.1150,0.076177
1380.9787,0.076581
1382.8423,0.076803
1384.7060,0.077181
1386.5697,0.078381
1388.4333,0.079245
1390.2970,0.079006
1392.1607,0.079308
1394.0244,0.080719
1395.8880,0.081813
1397.7517,0.082325
1399.6154,0.083171
1401.4790,0.083105
1403.3427,0.083124
1405.2064,0.083281
1407.0700,0.082572
1408.9337,0.081631
1410.7974,0.080925
1412.6610,0.079848
1414.5247,0.078477
1416.3884,0.077561
1418.2520,0.077711
1420.1157,0.077022
1421.9794,0.075462
1423.8431,0.075126
1425.7067,0.074801
1427.5704,0.074679
1429.4341,0.075698
1431.2977,0.076532
1433.1614,0.076752
1435.0251,0.078369
1436.8887,0.081414
1438.7524,0.081924
1440.6161,0.081735
1442.4797,0.082126
1444.3434,0.082413
1446.2071,0.082973
1448.0707,0.083480
1449.9344,0.082942
1451.7981,0.081772
1453.6618,0.080524
1455.5254,0.080504
1457.3891,0.081078
1459.2528,0.077991
1461.1164,0.074966
1462.9801,0.073426
1464.8438,0.072624
1466.7074,0.070428
1468.5711,0.067956
1470.4348,0.066278
1472.2984,0.065532
1474.1621,0.063954
1476.0258,0.062238
1477.8895,0.060790
1479.7531,0.059910
1481.6168,0.059770
1483.4805,0.059588
1485.3441,0.059635
1487.2078,0.060975
1489.0715,0.064004
1490.9351,0.066445
1492.7988,0.066763
1494.6625,0.068497
1496.5261,0.072894
1498.3898,0.076416
1500.2535,0.077928
1502.1171,0.078679
1503.9808,0.080321
1505.8445,0.086748
1507.7082,0.094821
1509.5718,0.095792
1511.4355,0.097251
1513.2992,0.099595
1515.1628,0.102010
1517.0265,0.104195
1518.8902,0.105056
1520.7538,0.107271
1522.6175,0.109199
1524.4812,0.109437
1526.3448,0.111000
1528.2085,0.111850
1530.0722,0.112151
1531.9359,0.113260
1533.7995,0.114815
1535.6632,0.113950
1537.5269,0.113779
1539.3905,0.115811
1541.2542,0.116582
1543.1179,0.114989
1544.9815,0.113508
1546.8452,0.111493
1548.7089,0.109855
1550.5725,0.107545
1552.4362,0.104691
1554.2999,0.101902
1556.1635,0.099409
1558.0272,0.099151
1559.8909,0.096804
1561.7546,0.092315
1563.6182,0.089563
1565.4819,0.087237
1567.3456,0.085424
1569.2092,0.084154
1571.0729,0.081792
1572.9366,0.079493
1574.8002,0.078835
1576.6639,0.078643
1578.5276,0.076960
1580.3912,0.075606
1582.2549,0.075100
1584.1186,0.075151
1585.9822,0.075463
1587.8459,0.075982
1589.7096,0.076684
1591.5733,0.077761
1593.4369,0.079410
1595.3006,0.081557
1597.1643,0.083610
1599.0279,0.085805
1600.8916,0.088560
1602.7553,0.091734
1604.6189,0.095001
1606.4826,0.098443
1608.3463,0.102397
1610.2099,0.106280
1612.0736,0.109315
1613.9373,0.112378
1615.8010,0.117145
1617.6646,0.121767
1619.5283,0.123582
1621.3920,0.126030
1623.2556,0.129877
1625.1193,0.132532
1626.9830,0.134247
1628.8466,0.136006
1630.7103,0.136873
1632.5740,0.137307
1634.4376,0.138425
1636.3013,0.138506
1638.1650,0.136773
1640.0286,0.135010
1641.8923,0.133304
1643.7560,0.131634
1645.6197,0.130147
1647.4833,0.127194
1649.3470,0.124315
1651.2107,0.122761
1653.0743,0.120616
1654.9380,0.115677
1656.8017,0.112305
1658.6653,0.109070
1660.5290,0.105758
1662.3927,0.102125
1664.2563,0.098304
1666.1200,0.094753
1667.9837,0.091481
1669.8474,0.087581
1671.7110,0.083687
1673.5747,0.080297
1675.4384,0.076221
1677.3020,0.071865
1679.1657,0.068558
1681.0294,0.064916
1682.8930,0.061372
1684.7567,0.056391
1686.6204,0.052209
1688.4840,0.048711
1690.3477,0.044724
1692.2114,0.040921
1694.0750,0.037370
1695.9387,0.033015
1697.8024,0.029437
1699.6661,0.026058
1701.5297,0.022828
1703.3934,0.021024
1705.2571,0.019312
1707.1207,0.017372
1708.9844,0.015968
1710.8481,0.014864
1712.7117,0.014162
1714.5754,0.013542
1716.4391,0.012888
1718.3027,0.012158
1720.1664,0.011668
1722.0301,0.011097
1723.8937,0.010683
1725.7574,0.010228
1727.6211,0.009840
1729.4848,0.009459
1731.3484,0.009448
1733.2121,0.009112
1735.0758,0.009034
1736.9394,0.009315
1738.8031,0.009343
1740.6668,0.009019
1742.5304,0.008737
1744.3941,0.008643
1746.2578,0.008597
1748.1214,0.008354
1749.9851,0.008218
1751.8488,0.008109
1753.7125,0.008116
1755.5761,0.007876
1757.4398,0.007840
1759.3035,0.007650
1761.1671,0.006966
1763.0308,0.006152
1764.8945,0.005626
1766.7581,0.004915
1768.6218,0.004400
1770.4855,0.004015
1772.3491,0.003732
1774.2128,0.003550
1776.0765,0.003339
1777.9401,0.003141
1779.8038,0.003124
1781.6675,0.003116
1783.5312,0.002925
1785.3948,0.002700
1787.2585,0.002768
1789.1222,0.002819
1790.9858,0.002758
1792.8495,0.002555
1794.7132,0.002384
1796.5768,0.002308
1798.4405,0.002389
1800.3042,0.002289
1802.1678,0.002110
1804.0315,0.001965
1805.8952,0.001954
1807.7589,0.002099
1809.6225,0.002175
1811.4862,0.002166
1813.3499,0.002080
1815.2135,0.001844
1817.0772,0.001878
1818.9409,0.002020
1820.8045,0.002015
1822.6682,0.002073
1824.5319,0.002051
1826.3955,0.002101
1828.2592,0.002021
1830.1229,0.001733
1831.9865,0.001868
1833.8502,0.001836
1835.7139,0.001636
1837.5776,0.001595
1839.4412,0.002114
1841.3049,0.002490
1843.1686,0.002227
1845.0322,0.002019
1846.8959,0.002157
1848.7596,0.002069
1850.6232,0.001932
1852.4869,0.001901
1854.3506,0.002026
1856.2142,0.002239
1858.0779,0.002049
1859.9416,0.001908
1861.8052,0.002183
1863.6689,0.002372
1865.5326,0.002320
1867.3963,0.002165
1869.2599,0.002389
1871.1236,0.002360
1872.9873,0.001948
1874.8509,0.001882
1876.7146,0.002105
1878.5783,0.002240
1880.4419,0.002390
1882.3056,0.002393
1884.1693,0.002241
1886.0329,0.002239
1887.8966,0.002297
1889.7603,0.002205
1891.6240,0.002188
1893.4876,0.002059
1895.3513,0.002604
1897.2150,0.002779
1899.0786,0.002253
1900.9423,0.001986
1902.8060,0.002150
1904.6696,0.002468
1906.5333,0.002587
1908.3970,0.002802
1910.2606,0.002938
1912.1243,0.002616
1913.9880,0.002371
1915.8516,0.002287
1917.7153,0.002619
1919.5790,0.003205
1921.4427,0.002899
1923.3063,0.002492
1925.1700,0.002102
1927.0337,0.001873
1928.8973,0.002606
1930.7610,0.002828
1932.6247,0.002518
1934.4883,0.002744
1936.3520,0.002697
1938.2157,0.002808
1940.0793,0.003064
1941.9430,0.002387
1943.8067,0.002664
1945.6704,0.003172
1947.5340,0.003209
1949.3977,0.003438
1951.2614,0.003266
1953.1250,0.003174
1954.9887,0.003397
1956.8524,0.002657
1958.7160,0.002493
1960.5797,0.003973
1962.4434,0.004692
1964.3070,0.003863
1966.1707,0.004423
1968.0344,0.005625
1969.8980,0.005035
1971.7617,0.004791
1973.6254,0.004497
1975.4891,0.004255
1977.3527,0.004869
1979.2164,0.005155
1981.0801,0.005338
1982.9437,0.005469
1984.8074,0.005833
1986.6711,0.006063
1988.5347,0.005901
1990.3984,0.005413
1992.2621,0.005472
1994.1257,0.005725
1995.9894,0.005203
1997.8531,0.004719
1999.7167,0.004634
2001.5804,0.005010
2003.4441,0.004598
2005.3078,0.004658
2007.1714,0.005878
2009.0351,0.005814
2010.8988,0.005861
2012.7624,0.006129
2014.6261,0.005519
2016.4898,0.006246
2018.3534,0.007278
2020.2171,0.005866
2022.0808,0.005386
2023.9444,0.006593
2025.8081,0.006297
2027.6718,0.005782
2029.5355,0.006408
2031.3991,0.006798
2033.2628,0.007325
2035.1265,0.008007
2036.9901,0.008182
2038.8538,0.008133
2040.7175,0.007579
2042.5811,0.007807
2044.4448,0.008477
2046.3085,0.008256
2048.1721,0.008176
2050.0358,0.008307
2051.8995,0.007930
2053.7631,0.007540
2055.6268,0.007692
2057.4905,0.007515
2059.3542,0.006727
2061.2178,0.005929
2063.0815,0.006059
2064.9452,0.006915
2066.8088,0.007004
2068.6725,0.006461
2070.5362,0.006704
2072.3998,0.007258
2074.2635,0.007045
2076.1272,0.006744
2077.9908,0.006948
2079.8545,0.007374
2081.7182,0.007616
2083.5819,0.007112
2085.4455,0.006633
2087.3092,0.006784
2089.1729,0.007016
2091.0365,0.006796
2092.9002,0.006117
2094.7639,0.005651
2096.6275,0.006182
2098.4912,0.006354
2100.3549,0.006293
2102.2185,0.006964
2104.0822,0.006892
2105.9459,0.006548
2107.8095,0.006858
2109.6732,0.006888
2111.5369,0.007169
2113.4006,0.007224
2115.2642,0.006746
2117.1279,0.006400
2118.9916,0.006278
2120.8552,0.006527
2122.7189,0.006866
2124.5826,0.006296
2126.4462,0.005847
2128.3099,0.005843
2130.1736,0.005293
2132.0372,0.005048
2133.9009,0.005774
2135.7646,0.006757
2137.6282,0.006219
2139.4919,0.005034
2141.3556,0.006302
2143.2193,0.008355
2145.0829,0.007821
2146.9466,0.006399
2148.8103,0.006908
2150.6739,0.007903
2152.5376,0.007209
2154.4013,0.007082
2156.2649,0.008160
2158.1286,0.009119
2159.9923,0.009595
2161.8559,0.009861
2163.7196,0.011312
2165.5833,0.012253
2167.4470,0.011090
2169.3106,0.009803
2171.1743,0.009325
2173.0380,0.009482
2174.9016,0.009920
2176.7653,0.010104
2178.6290,0.010528
2180.4926,0.010373
2182.3563,0.009920
2184.2200,0.009652
2186.0836,0.009426
2187.9473,0.009886
2189.8110,0.010613
2191.6746,0.010907
2193.5383,0.010320
2195.4020,0.009059
2197.2657,0.008819
2199.1293,0.009514
2200.9930,0.009441
2202.8567,0.008929
2204.7203,0.008882
2206.5840,0.009379
2208.4477,0.009344
2210.3113,0.008440
2212.1750,0.008350
2214.0387,0.009374
2215.9023,0.009332
2217.7660,0.008611
2219.6297,0.009134
2221.4934,0.009362
2223.3570,0.009026
2225.2207,0.009009
2227.0844,0.008859
2228.9480,0.008602
2230.8117,0.008862
2232.6754,0.009274
2234.5390,0.009542
2236.4027,0.010075
2238.2664,0.009745
2240.1300,0.009124
2241.9937,0.009024
2243.8574,0.008587
2245.7210,0.008354
2247.5847,0.008914
2249.4484,0.009271
2251.3121,0.009075
2253.1757,0.009197
2255.0394,0.009569
2256.9031,0.009237
2258.7667,0.008596
2260.6304,0.008264
2262.4941,0.008169
2264.3577,0.008539
2266.2214,0.009115
2268.0851,0.009321
2269.9487,0.009306
2271.8124,0.009528
2273.6761,0.009510
2275.5397,0.008999
2277.4034,0.009155
2279.2671,0.009837
2281.1308,0.010025
2282.9944,0.009829
2284.8581,0.009625
2286.7218,0.009742
2288.5854,0.010026
2290.4491,0.009838
2292.3128,0.009386
2294.1764,0.009071
2296.0401,0.008723
2297.9038,0.008897
2299.7674,0.009326
2301.6311,0.009135
2303.4948,0.008884
2305.3585,0.008713
2307.2221,0.008827
2309.0858,0.009136
2310.9495,0.009132
2312.8131,0.008932
2314.6768,0.008684
2316.5405,0.008933
2318.4041,0.009559
2320.2678,0.009864
2322.1315,0.010278
2323.9951,0.010469
2325.8588,0.009597
2327.7225,0.008455
2329.5861,0.008012
2331.4498,0.008209
2333.3135,0.008807
2335.1772,0.009371
2337.0408,0.009242
2338.9045,0.009042
2340.7682,0.009305
2342.6318,0.009384
2344.4955,0.009022
2346.3592,0.008737
2348.2228,0.008597
2350.0865,0.008266
2351.9502,0.008252
2353.8138,0.008817
2355.6775,0.009078
2357.5412,0.009157
2359.4049,0.009489
2361.2685,0.009579
2363.1322,0.009836
2364.9959,0.010296
2366.8595,0.010450
2368.7232,0.010081
2370.5869,0.009633
2372.4505,0.009361
2374.3142,0.009744
2376.1779,0.009930
2378.0415,0.009395
2379.9052,0.009030
2381.7689,0.008926
2383.6325,0.008793
2385.4962,0.008801
2387.3599,0.008942
2389.2236,0.008981
2391.0872,0.008949
2392.9509,0.008920
2394.8146,0.009058
2396.6782,0.009357
2398.5419,0.009199
2400.4056,0.008914
2402.2692,0.009114
2404.1329,0.009116
2405.9966,0.008841
2407.8602,0.008974
2409.7239,0.009400
2411.5876,0.009663
2413.4512,0.009686
2415.3149,0.009617
2417.1786,0.009668
2419.0423,0.009774
2420.9059,0.009709
2422.7696,0.009708
2424.6333,0.009780
2426.4969,0.009958
2428.3606,0.010112
2430.2243,0.009934
2432.0879,0.009896
2433.9516,0.010232
2435.8153,0.010175
2437.6789,0.009832
2439.5426,0.009876
2441.4063,0.010222
2443.2700,0.010508
2445.1336,0.010533
2446.9973,0.010479
2448.8610,0.010435
2450.7246,0.010592
2452.5883,0.010368
2454.4520,0.010274
2456.3156,0.010418
2458.1793,0.010307
2460.0430,0.010319
2461.9066,0.010508
2463.7703,0.010532
2465.6340,0.010500
2467.4976,0.010601
2469.3613,0.010491
2471.2250,0.010349
2473.0887,0.010424
2474.9523,0.010495
2476.8160,0.010724
2478.6797,0.010913
2480.5433,0.010732
2482.4070,0.010785
2484.2707,0.010966
2486.1343,0.010867
2487.9980,0.010794
2489.8617,0.011007
2491.7253,0.010865
2493.5890,0.010760
2495.4527,0.011055
2497.3164,0.010914
2499.1800,0.010953
2501.0437,0.011355
2502.9074,0.011140
2504.7710,0.010969
2506.6347,0.011203
2508.4984,0.011105
2510.3620,0.011131
2512.2257,0.011230
2514.0894,0.011336
2515.9530,0.011513
2517.8167,0.011278
2519.6804,0.010980
2521.5440,0.011148
2523.4077,0.011340
2525.2714,0.011444
2527.1351,0.011550
2528.9987,0.011436
2530.8624,0.011278
2532.7261,0.011322
2534.5897,0.011343
2536.4534,0.011297
2538.3171,0.011448
2540.1807,0.011655
2542.0444,0.011811
2543.9081,0.011954
2545.7717,0.012062
2547.6354,0.011994
2549.4991,0.011940
2551.3627,0.012065
2553.2264,0.012013
2555.0901,0.012101
2556.9538,0.012327
2558.8174,0.012169
2560.6811,0.012127
2562.5448,0.012324
2564.4084,0.012412
2566.2721,0.012382
2568.1358,0.012482
2569.9994,0.012765
2571.8631,0.012780
2573.7268,0.012365
2575.5904,0.012515
2577.4541,0.012822
2579.3178,0.012881
2581.1815,0.012841
2583.0451,0.013128
2584.9088,0.013318
2586.7725,0.013115
2588.6361,0.012953
2590.4998,0.012998
2592.3635,0.013332
2594.2271,0.013521
2596.0908,0.013324
2597.9545,0.013414
2599.8181,0.013845
2601.6818,0.014011
2603.5455,0.014070
2605.4091,0.014020
2607.2728,0.013965
2609.1365,0.014109
2611.0002,0.014204
2612.8638,0.014228
2614.7275,0.014424
2616.5912,0.014531
2618.4548,0.014547
2620.3185,0.014719
2622.1822,0.014963
2624.0458,0.015063
2625.9095,0.015091
2627.7732,0.015060
2629.6368,0.015193
2631.5005,0.015340
2633.3642,0.015379
2635.2279,0.015439
2637.0915,0.015581
2638.9552,0.015492
2640.8189,0.015603
2642.6825,0.015841
2644.5462,0.015883
2646.4099,0.015921
2648.2735,0.015920
2650.1372,0.015965
2652.0009,0.016096
2653.8645,0.016055
2655.7282,0.016074
2657.5919,0.016203
2659.4555,0.016214
2661.3192,0.016230
2663.1829,0.016225
2665.0466,0.015989
2666.9102,0.015922
2668.7739,0.016180
2670.6376,0.016460
2672.5012,0.016544
2674.3649,0.016613
2676.2286,0.016676
2678.0922,0.016803
2679.9559,0.016837
2681.8196,0.016782
2683.6832,0.016851
2685.5469,0.017133
2687.4106,0.017260
2689.2742,0.017355
2691.1379,0.017420
2693.0016,0.017607
2694.8653,0.017809
2696.7289,0.017848
2698.5926,0.017883
2700.4563,0.017855
2702.3199,0.017985
2704.1836,0.018198
2706.0473,0.018319
2707.9109,0.018635
2709.7746,0.018849
2711.6383,0.018766
2713.5019,0.018876
2715.3656,0.019214
2717.2293,0.019403
2719.0930,0.019321
2720.9566,0.019219
2722.8203,0.019653
2724.6840,0.020183
2726.5476,0.020354
2728.4113,0.020371
2730.2750,0.020509
2732.1386,0.020549
2734.0023,0.020763
2735.8660,0.021062
2737.7296,0.021129
2739.5933,0.021255
2741.4570,0.021447
2743.3206,0.021518
2745.1843,0.021628
2747.0480,0.021775
2748.9117,0.021928
2750.7753,0.021931
2752.6390,0.021976
2754.5027,0.022166
2756.3663,0.022379
2758.2300,0.022600
2760.0937,0.023038
2761.9573,0.023179
2763.8210,0.023310
2765.6847,0.023638
2767.5483,0.023667
2769.4120,0.023686
2771.2757,0.024012
2773.1394,0.024437
2775.0030,0.024546
2776.8667,0.024490
2778.7304,0.024686
2780.5940,0.024882
2782.4577,0.025141
2784.3214,0.025433
2786.1850,0.025712
2788.0487,0.025925
2789.9124,0.025996
2791.7760,0.026029
2793.6397,0.026193
2795.5034,0.026558
2797.3670,0.026752
2799.2307,0.026935
2801.0944,0.027224
2802.9581,0.027518
2804.8217,0.027682
2806.6854,0.027908
2808.5491,0.028235
2810.4127,0.028456
2812.2764,0.028640
2814.1401,0.028866
2816.0037,0.029102
2817.8674,0.029357
2819.7311,0.029704
2821.5947,0.029921
2823.4584,0.030224
2825.3221,0.030682
2827.1857,0.030737
2829.0494,0.031039
2830.9131,0.031683
2832.7768,0.032322
2834.6404,0.032766
2836.5041,0.033265
2838.3678,0.033730
2840.2314,0.034341
2842.0951,0.035067
2843.9588,0.035949
2845.8224,0.036770
2847.6861,0.037241
2849.5498,0.037574
2851.4134,0.038339
2853.2771,0.039017
2855.1408,0.039379
2857.0045,0.039525
2858.8681,0.039462
2860.7318,0.039625
2862.5955,0.040076
2864.4591,0.040442
2866.3228,0.041075
2868.1865,0.041777
2870.0501,0.042117
2871.9138,0.042281
2873.7775,0.042421
2875.6411,0.042197
2877.5048,0.042107
2879.3685,0.042295
2881.2321,0.042428
2883.0958,0.042411
2884.9595,0.042484
2886.8232,0.042436
2888.6868,0.042828
2890.5505,0.043323
2892.4142,0.043400
2894.2778,0.043553
2896.1415,0.043812
2898.0052,0.044140
2899.8688,0.044810
2901.7325,0.045293
2903.5962,0.045871
2905.4598,0.046247
2907.3235,0.046782
2909.1872,0.047407
2911.0509,0.048063
2912.9145,0.048878
2914.7782,0.049655
2916.6419,0.050171
2918.5055,0.050933
2920.3692,0.051621
2922.2329,0.052366
2924.0965,0.053042
2925.9602,0.053136
2927.8239,0.053025
2929.6875,0.052742
2931.5512,0.052016
2933.4149,0.051554
2935.2785,0.051423
2937.1422,0.051449
2939.0059,0.051080
2940.8696,0.050513
2942.7332,0.050036
2944.5969,0.049823
2946.4606,0.049644
2948.3242,0.049401
2950.1879,0.049539
2952.0516,0.049851
2953.9152,0.049840
2955.7789,0.049969
2957.6426,0.049889
2959.5062,0.049639
2961.3699,0.049223
2963.2336,0.048620
2965.0972,0.047954
2966.9609,0.047565
2968.8246,0.047385
2970.6883,0.046759
2972.5519,0.045895
2974.4156,0.045434
2976.2793,0.044932
2978.1429,0.044378
2980.0066,0.043733
2981.8703,0.043295
2983.7339,0.042870
2985.5976,0.042568
2987.4613,0.042332
2989.3249,0.041825
2991.1886,0.041482
2993.0523,0.041590
2994.9160,0.041458
2996.7796,0.041148
2998.6433,0.040841
3000.5070,0.040966
3002.3706,0.041282
3004.2343,0.041521
3006.0980,0.041693
3007.9616,0.041995
3009.8253,0.042218
3011.6890,0.042496
3013.5526,0.042836
3015.4163,0.043097
3017.2800,0.043170
3019.1436,0.042999
3021.0073,0.043209
3022.8710,0.043958
3024.7347,0.044271
3026.5983,0.044493
3028.4620,0.044961
3030.3257,0.045502
3032.1893,0.045974
3034.0530,0.046546
3035.9167,0.046949
3037.7803,0.047160
3039.6440,0.047250
3041.5077,0.047548
3043.3713,0.047776
3045.2350,0.048003
3047.0987,0.048403
3048.9624,0.048966
3050.8260,0.049399
3052.6897,0.049593
3054.5534,0.049633
3056.4170,0.050061
3058.2807,0.050431
3060.1444,0.050702
3062.0080,0.050862
3063.8717,0.051364
3065.7354,0.051632
3067.5990,0.051973
3069.4627,0.051922
3071.3264,0.051715
3073.1900,0.051902
3075.0537,0.052183
3076.9174,0.052307
3078.7811,0.052187
3080.6447,0.052310
3082.5084,0.052362
3084.3721,0.051959
3086.2357,0.051784
3088.0994,0.051972
3089.9631,0.052350
3091.8267,0.052058
3093.6904,0.051963
3095.5541,0.052108
3097.4177,0.052102
3099.2814,0.052152
3101.1451,0.052303
3103.0087,0.052285
3104.8724,0.052558
3106.7361,0.052846
3108.5998,0.052889
3110.4634,0.052500
3112.3271,0.052717
3114.1908,0.053271
3116.0544,0.053287
3117.9181,0.053039
3119.7818,0.053080
3121.6454,0.053096
3123.5091,0.053387
3125.3728,0.053995
3127.2364,0.054566
3129.1001,0.054785
3130.9638,0.054945
3132.8275,0.055178
3134.6911,0.055754
3136.5548,0.056415
3138.4185,0.056834
3140.2821,0.057188
3142.1458,0.057448
3144.0095,0.057724
3145.8731,0.058354
3147.7368,0.058466
3149.6005,0.058752
3151.4641,0.059472
3153.3278,0.060329
3155.1915,0.060853
3157.0551,0.061385
3158.9188,0.061781
3160.7825,0.061905
3162.6462,0.062402
3164.5098,0.062973
3166.3735,0.063253
3168.2372,0.064016
3170.1008,0.064414
3171.9645,0.064602
3173.8282,0.065019
3175.6918,0.065725
3177.5555,0.066472
3179.4192,0.066920
3181.2828,0.067054
3183.1465,0.067823
3185.0102,0.068003
3186.8739,0.067833
3188.7375,0.068132
3190.6012,0.068864
3192.4649,0.069539
3194.3285,0.069883
3196.1922,0.069819
3198.0559,0.070363
3199.9195,0.070393
3201.7832,0.070363
3203.6469,0.071136
3205.5105,0.071707
3207.3742,0.071766
3209.2379,0.072010
3211.1015,0.071688
3212.9652,0.071874
3214.8289,0.072072
3216.6926,0.072232
3218.5562,0.072595
3220.4199,0.073044
3222.2836,0.073114
3224.1472,0.073717
3226.0109,0.073960
3227.8746,0.073876
3229.7382,0.074092
3231.6019,0.074460
3233.4656,0.074319
3235.3292,0.074593
3237.1929,0.074893
3239.0566,0.075351
3240.9202,0.075635
3242.7839,0.076385
3244.6476,0.076390
3246.5113,0.076149
3248.3749,0.076537
3250.2386,0.077140
3252.1023,0.077215
3253.9659,0.077351
3255.8296,0.077694
3257.6933,0.078188
3259.5569,0.078022
3261.4206,0.078258
3263.2843,0.078476
3265.1479,0.079049
3267.0116,0.079478
3268.8753,0.079823
3270.7390,0.079716
3272.6026,0.079626
3274.4663,0.079740
3276.3300,0.079822
3278.1936,0.079320
3280.0573,0.078654
3281.9210,0.078182
3283.7846,0.078579
3285.6483,0.078886
3287.5120,0.078871
3289.3756,0.078543
3291.2393,0.078190
3293.1030,0.077914
3294.9666,0.077422
3296.8303,0.076676
3298.6940,0.076557
3300.5577,0.076080
3302.4213,0.075704
3304.2850,0.075375
3306.1487,0.074822
3308.0123,0.074455
3309.8760,0.074090
3311.7397,0.073323
3313.6033,0.073075
3315.4670,0.072459
3317.3307,0.072238
3319.1943,0.072185
3321.0580,0.071830
3322.9217,0.071650
3324.7854,0.071134
3326.6490,0.070169
3328.5127,0.070261
3330.3764,0.070269
3332.2400,0.069335
3334.1037,0.068601
3335.9674,0.068568
3337.8310,0.068669
3339.6947,0.068665
3341.5584,0.068247
3343.4220,0.067503
3345.2857,0.066755
3347.1494,0.066758
3349.0130,0.066753
3350.8767,0.066295
3352.7404,0.065778
3354.6041,0.065860
3356.4677,0.065497
3358.3314,0.065168
3360.1951,0.064701
3362.0587,0.064639
3363.9224,0.064641
3365.7861,0.064251
3367.6497,0.064059
3369.5134,0.063857
3371.3771,0.063091
3373.2407,0.062611
3375.1044,0.062581
3376.9681,0.062810
3378.8317,0.062606
3380.6954,0.062431
3382.5591,0.061854
3384.4228,0.061457
3386.2864,0.061341
3388.1501,0.061093
3390.0138,0.060471
3391.8774,0.059700
3393.7411,0.059314
3395.6048,0.059836
3397.4684,0.059709
3399.3321,0.058834
3401.1958,0.058039
3403.0594,0.057799
3404.9231,0.058110
3406.7868,0.058292
3408.6505,0.058064
3410.5141,0.057498
3412.3778,0.056723
3414.2415,0.056359
3416.1051,0.055877
3417.9688,0.055176
3419.8325,0.054543
3421.6961,0.054876
3423.5598,0.054985
3425.4235,0.053780
3427.2871,0.052360
3429.1508,0.052453
3431.0145,0.052639
3432.8781,0.052240
3434.7418,0.051931
3436.6055,0.051535
3438.4692,0.050851
3440.3328,0.050464
3442.1965,0.050231
3444.0602,0.049940
3445.9238,0.049296
3447.7875,0.049094
3449.6512,0.048930
3451.5148,0.048442
3453.3785,0.047414
3455.2422,0.046702
3457.1058,0.046488
3458.9695,0.045699
3460.8332,0.044690
3462.6969,0.044688
3464.5605,0.044658
3466.4242,0.044192
3468.2879,0.043734
3470.1515,0.044308
3472.0152,0.044022
3473.8789,0.042639
3475.7425,0.042053
3477.6062,0.041452
3479.4699,0.040650
3481.3335,0.040383
3483.1972,0.039993
3485.0609,0.039625
3486.9245,0.039224
3488.7882,0.038733
3490.6519,0.037986
3492.5156,0.037607
3494.3792,0.037443
3496.2429,0.036543
3498.1066,0.035552
3499.9702,0.035283
3501.8339,0.035324
3503.6976,0.034909
3505.5612,0.034350
3507.4249,0.033768
3509.2886,0.032909
3511.1522,0.032673
3513.0159,0.032855
3514.8796,0.032593
3516.7432,0.031768
3518.6069,0.030630
3520.4706,0.030104
3522.3343,0.029683
3524.1979,0.029210
3526.0616,0.028623
3527.9253,0.027785
3529.7889,0.027283
3531.6526,0.026810
3533.5163,0.026611
3535.3799,0.026669
3537.2436,0.025847
3539.1073,0.024641
3540.9709,0.023973
3542.8346,0.023347
3544.6983,0.022551
3546.5620,0.022238
3548.4256,0.022193
3550.2893,0.021387
3552.1530,0.020660
3554.0166,0.020279
3555.8803,0.019578
3557.7440,0.019439
3559.6076,0.019255
3561.4713,0.018327
3563.3350,0.017323
3565.1986,0.016398
3567.0623,0.015691
3568.9260,0.015278
3570.7896,0.014870
3572.6533,0.014420
3574.5170,0.014297
3576.3807,0.014116
3578.2443,0.013206
3580.1080,0.012178
3581.9717,0.011914
3583.8353,0.011787
3585.6990,0.011364
3587.5627,0.010695
3589.4263,0.010274
3591.2900,0.009734
3593.1537,0.008953
3595.0173,0.008576
3596.8810,0.008367
3598.7447,0.007910
3600.6084,0.007641
3602.4720,0.007806
3604.3357,0.007546
3606.1994,0.006615
3608.0630,0.005586
3609.9267,0.005063
3611.7904,0.004628
3613.6540,0.003970
3615.5177,0.003841
3617.3814,0.003628
3619.2450,0.003109
3621.1087,0.002621
3622.9724,0.002223
3624.8360,0.001942
3626.6997,0.001478
3628.5634,0.000889
3630.4271,0.000605
3632.2907,0.000593
3634.1544,0.000433
3636.0181,0.000023
3637.8817,-0.000510
3639.7454,-0.000631
3641.6091,-0.000578
3643.4727,-0.000761
3645.3364,-0.001304
3647.2001,-0.002482
3649.0637,-0.003956
3650.9274,-0.004258
3652.7911,-0.003497
3654.6547,-0.003382
3656.5184,-0.003855
3658.3821,-0.003916
3660.2458,-0.003718
3662.1094,-0.003845
3663.9731,-0.004429
3665.8368,-0.005020
3667.7004,-0.005302
3669.5641,-0.005819
3671.4278,-0.005949
3673.2914,-0.005369
3675.1551,-0.005905
3677.0188,-0.006630
3678.8824,-0.006188
3680.7461,-0.005879
3682.6098,-0.006117
3684.4735,-0.006321
3686.3371,-0.006095
3688.2008,-0.006684
3690.0645,-0.007297
3691.9281,-0.006725
3693.7918,-0.006588
3695.6555,-0.006882
3697.5191,-0.006918
3699.3828,-0.006743
3701.2465,-0.006762
3703.1101,-0.006863
3704.9738,-0.007007
3706.8375,-0.007473
3708.7011,-0.007811
3710.5648,-0.007770
3712.4285,-0.007714
3714.2922,-0.007486
3716.1558,-0.007333
3718.0195,-0.007088
3719.8832,-0.006556
3721.7468,-0.006707
3723.6105,-0.007117
3725.4742,-0.007297
3727.3378,-0.007422
3729.2015,-0.006859
3731.0652,-0.006613
3732.9288,-0.007337
3734.7925,-0.007747
3736.6562,-0.007582
3738.5199,-0.007332
3740.3835,-0.007033
3742.2472,-0.007086
3744.1109,-0.008030
3745.9745,-0.008185
3747.8382,-0.007254
3749.7019,-0.007243
3751.5655,-0.007236
3753.4292,-0.006951
3755.2929,-0.006983
3757.1565,-0.007306
3759.0202,-0.007474
3760.8839,-0.006914
3762.7475,-0.006437
3764.6112,-0.006719
3766.4749,-0.006986
3768.3386,-0.007125
3770.2022,-0.007388
3772.0659,-0.007006
3773.9296,-0.006790
3775.7932,-0.006964
3777.6569,-0.007064
3779.5206,-0.007246
3781.3842,-0.007145
3783.2479,-0.006940
3785.1116,-0.007125
3786.9752,-0.007036
3788.8389,-0.006781
3790.7026,-0.006757
3792.5662,-0.006477
3794.4299,-0.006181
3796.2936,-0.006470
3798.1573,-0.006779
3800.0209,-0.006994
3801.8846,-0.007554
3803.7483,-0.007208
3805.6119,-0.006804
3807.4756,-0.007229
3809.3393,-0.007142
3811.2029,-0.006755
3813.0666,-0.006729
3814.9303,-0.007206
3816.7939,-0.007478
3818.6576,-0.007096
3820.5213,-0.007271
3822.3850,-0.007552
3824.2486,-0.007032
3826.1123,-0.006975
3827.9760,-0.007097
3829.8396,-0.007086
3831.7033,-0.007063
3833.5670,-0.007020
3835.4306,-0.007150
3837.2943,-0.007361
3839.1580,-0.007294
3841.0216,-0.007177
3842.8853,-0.006924
3844.7490,-0.006891
3846.6126,-0.006762
3848.4763,-0.006688
3850.3400,-0.007084
3852.2037,-0.007663
3854.0673,-0.007766
3855.9310,-0.007586
3857.7947,-0.007491
3859.6583,-0.007351
3861.5220,-0.007162
3863.3857,-0.006870
3865.2493,-0.006487
3867.1130,-0.006387
3868.9767,-0.007090
3870.8403,-0.007730
3872.7040,-0.007147
3874.5677,-0.006766
3876.4314,-0.006520
3878.2950,-0.006642
3880.1587,-0.007293
3882.0224,-0.007097
3883.8860,-0.006451
3885.7497,-0.006847
3887.6134,-0.007198
3889.4770,-0.006917
3891.3407,-0.006924
3893.2044,-0.007241
3895.0680,-0.006942
3896.9317,-0.006383
3898.7954,-0.006313
3900.6590,-0.006945
3902.5227,-0.007364
3904.3864,-0.007218
3906.2501,-0.006903
3908.1137,-0.006581
3909.9774,-0.006456
3911.8411,-0.006263
3913.7047,-0.006039
3915.5684,-0.006142
3917.4321,-0.006605
3919.2957,-0.006888
3921.1594,-0.006883
3923.0231,-0.006903
3924.8867,-0.006569
3926.7504,-0.006358
3928.6141,-0.006374
3930.4777,-0.006352
3932.3414,-0.006280
3934.2051,-0.006345
3936.0688,-0.006540
3937.9324,-0.006847
3939.7961,-0.006728
3941.6598,-0.006360
3943.5234,-0.006436
3945.3871,-0.006479
3947.2508,-0.006413
3949.1144,-0.006815
3950.9781,-0.006740
3952.8418,-0.006392
3954.7054,-0.006323
3956.5691,-0.006175
3958.4328,-0.006018
3960.2965,-0.006193
3962.1601,-0.006336
3964.0238,-0.006371
3965.8875,-0.006182
3967.7511,-0.006122
3969.6148,-0.006069
3971.4785,-0.006107
3973.3421,-0.006222
3975.2058,-0.006181
3977.0695,-0.006390
3978.9331,-0.006686
3980.7968,-0.006636
3982.6605,-0.006588
3984.5241,-0.006498
3986.3878,-0.006073
3988.2515,-0.005824
3990.1152,-0.006151
3991.9788,-0.006659
3993.8425,-0.006745
3995.7062,-0.006334
3997.5698,-0.006160
3999.4335,-0.006153
