Wavenumber,Intensity
650.4205,0.074913
652.2841,0.073595
654.1478,0.074788
656.0115,0.074566
657.8751,0.074338
659.7388,0.073646
661.6025,0.070443
663.4661,0.068362
665.3298,0.070314
667.1935,0.073720
669.0571,0.070958
670.9208,0.068504
672.7845,0.069775
674.6481,0.069384
676.5118,0.067137
678.3755,0.065351
680.2392,0.064897
682.1028,0.064786
683.9665,0.063423
685.8302,0.062925
687.6938,0.063651
689.5575,0.064017
691.4212,0.063942
693.2848,0.062979
695.1485,0.062758
697.0122,0.062875
698.8758,0.062126
700.7395,0.061285
702.6032,0.060970
704.4669,0.060523
706.3305,0.059317
708.1942,0.058642
710.0579,0.058527
711.9215,0.057663
713.7852,0.056777
715.6489,0.055879
717.5125,0.054545
719.3762,0.054101
721.2399,0.054290
723.1035,0.053825
724.9672,0.053024
726.8309,0.052495
728.6945,0.052196
730.5582,0.051917
732.4219,0.051664
734.2856,0.051422
736.1492,0.051119
738.0129,0.050615
739.8766,0.050840
741.7402,0.051247
743.6039,0.050402
745.4676,0.049844
747.3312,0.050073
749.1949,0.049701
751.0586,0.048874
752.9222,0.048214
754.7859,0.047874
756.6496,0.047568
758.5132,0.047188
760.3769,0.047083
762.2406,0.046734
764.1043,0.046232
765.9679,0.046002
767.8316,0.045679
769.6953,0.045130
771.5589,0.044899
773.4226,0.045082
775.2863,0.045003
777.1499,0.044589
779.0136,0.044071
780.8773,0.043597
782.7409,0.043222
784.6046,0.043188
786.4683,0.043016
788.3320,0.042495
790.1956,0.042096
792.0593,0.041552
793.9230,0.041278
795.7866,0.041399
797.6503,0.040892
799.5140,0.040069
801.3776,0.040093
803.2413,0.040329
805.1050,0.039958
806.9686,0.039560
808.8323,0.039574
810.6960,0.039481
812.5596,0.039208
814.4233,0.039144
816.2870,0.038838
818.1507,0.038153
820.0143,0.037669
821.8780,0.037563
823.7417,0.037230
825.6053,0.036720
827.4690,0.036561
829.3327,0.036379
831.1963,0.036114
833.0600,0.036063
834.9237,0.035943
836.7873,0.035394
838.6510,0.034884
840.5147,0.034618
842.3784,0.034293
844.2420,0.034097
846.1057,0.033938
847.9694,0.033599
849.8330,0.033561
851.6967,0.033609
853.5604,0.033563
855.4240,0.033789
857.2877,0.033890
859.1514,0.033611
861.0150,0.033560
862.8787,0.033577
864.7424,0.033714
866.6060,0.034214
868.4697,0.034480
870.3334,0.034630
872.1971,0.034941
874.0607,0.034931
875.9244,0.034752
877.7881,0.034570
879.6517,0.034119
881.5154,0.033763
883.3791,0.033558
885.2427,0.033222
887.1064,0.032919
888.9701,0.032752
890.8337,0.032824
892.6974,0.032989
894.5611,0.032853
896.4247,0.032615
898.2884,0.032619
900.1521,0.032611
902.0158,0.032680
903.8794,0.032879
905.7431,0.032971
907.6068,0.033176
909.4704,0.033590
911.3341,0.033942
913.1978,0.034192
915.0614,0.034560
916.9251,0.034930
918.7888,0.035273
920.6524,0.035667
922.5161,0.035894
924.3798,0.035931
926.2435,0.035885
928.1071,0.035884
929.9708,0.035912
931.8345,0.036009
933.6981,0.036109
935.5618,0.036169
937.4255,0.036264
939.2891,0.036467
941.1528,0.036840
943.0165,0.037237
944.8801,0.037385
946.7438,0.037501
948.6075,0.037841
950.4711,0.038221
952.3348,0.038450
954.1985,0.038761
956.0622,0.039459
957.9258,0.040321
959.7895,0.041109
961.6532,0.042022
963.5168,0.042922
965.3805,0.043548
967.2442,0.043961
969.1078,0.044200
970.9715,0.044316
972.8352,0.044303
974.6988,0.044244
976.5625,0.044495
978.4262,0.045008
980.2899,0.045484
982.1535,0.045849
984.0172,0.046227
985.8809,0.046536
987.7445,0.046661
989.6082,0.046812
991.4719,0.047081
993.3355,0.047587
995.1992,0.048251
997.0629,0.048903
998.9265,0.049632
1000.7902,0.050429
1002.6539,0.051265
1004.5175,0.052090
1006.3812,0.053022
1008.2449,0.054014
1010.1086,0.055047
1011.9722,0.056206
1013.8359,0.057407
1015.6996,0.058559
1017.5632,0.059660
1019.4269,0.060728
1021.2906,0.061527
1023.1542,0.062137
1025.0179,0.062714
1026.8816,0.063215
1028.7452,0.063741
1030.6089,0.064250
1032.4726,0.064510
1034.3362,0.064726
1036.1999,0.064926
1038.0636,0.065032
1039.9273,0.065127
1041.7909,0.065205
1043.6546,0.065284
1045.5183,0.065326
1047.3819,0.065449
1049.2456,0.065696
1051.1093,0.065761
1052.9729,0.065788
1054.8366,0.065907
1056.7003,0.065946
1058.5639,0.065916
1060.4276,0.065865
1062.2913,0.065870
1064.1550,0.065754
1066.0186,0.065577
1067.8823,0.065528
1069.7460,0.065354
1071.6096,0.064985
1073.4733,0.064474
1075.3370,0.063829
1077.2006,0.063009
1079.0643,0.061966
1080.9280,0.060742
1082.7916,0.059434
1084.6553,0.058035
1086.5190,0.056586
1088.3826,0.055330
1090.2463,0.054260
1092.1100,0.053252
1093.9737,0.052296
1095.8373,0.051512
1097.7010,0.050850
1099.5647,0.050238
1101.4283,0.049782
1103.2920,0.049496
1105.1557,0.049289
1107.0193,0.049118
1108.8830,0.049025
1110.7467,0.048998
1112.6103,0.049080
1114.4740,0.049224
1116.3377,0.049204
1118.2014,0.048994
1120.0650,0.048709
1121.9287,0.048452
1123.7924,0.048198
1125.6560,0.047940
1127.5197,0.047643
1129.3834,0.047353
1131.2470,0.047067
1133.1107,0.046575
1134.9744,0.045923
1136.8380,0.045308
1138.7017,0.044676
1140.5654,0.044091
1142.4290,0.043635
1144.2927,0.043318
1146.1564,0.043240
1148.0201,0.043270
1149.8837,0.043356
1151.7474,0.043504
1153.6111,0.043567
1155.4747,0.043622
1157.3384,0.043659
1159.2021,0.043676
1161.0657,0.043636
1162.9294,0.043463
1164.7931,0.043199
1166.6567,0.042917
1168.5204,0.042557
1170.3841,0.041958
1172.2477,0.041245
1174.1114,0.040566
1175.9751,0.039814
1177.8388,0.039184
1179.7024,0.038816
1181.5661,0.038674
1183.4298,0.038788
1185.2934,0.039075
1187.1571,0.039374
1189.0208,0.039823
1190.8844,0.040395
1192.7481,0.040946
1194.6118,0.041485
1196.4754,0.042059
1198.3391,0.042802
1200.2028,0.043591
1202.0665,0.044297
1203.9301,0.044998
1205.7938,0.045665
1207.6575,0.046141
1209.5211,0.046436
1211.3848,0.046770
1213.2485,0.047252
1215.1121,0.047757
1216.9758,0.048303
1218.8395,0.048886
1220.7031,0.049479
1222.5668,0.050100
1224.4305,0.050782
1226.2941,0.051329
1228.1578,0.051918
1230.0215,0.052454
1231.8852,0.052812
1233.7488,0.052944
1235.6125,0.052965
1237.4762,0.053000
1239.3398,0.052955
1241.2035,0.052701
1243.0672,0.052271
1244.9308,0.051815
1246.7945,0.051370
1248.6582,0.050826
1250.5218,0.050208
1252.3855,0.049664
1254.2492,0.049255
1256.1129,0.048853
1257.9765,0.048364
1259.8402,0.047971
1261.7039,0.047628
1263.5675,0.047320
1265.4312,0.047142
1267.2949,0.046956
1269.1585,0.046830
1271.0222,0.046706
1272.8859,0.046478
1274.7495,0.046326
1276.6132,0.046300
1278.4769,0.046269
1280.3405,0.046255
1282.2042,0.046185
1284.0679,0.046021
1285.9316,0.045959
1287.7952,0.045973
1289.6589,0.045987
1291.5226,0.046085
1293.3862,0.046115
1295.2499,0.046211
1297.1136,0.046510
1298.9772,0.046760
1300.8409,0.046896
1302.7046,0.047057
1304.5682,0.047361
1306.4319,0.047703
1308.2956,0.047947
1310.1592,0.048031
1312.0229,0.048153
1313.8866,0.048193
1315.7503,0.047983
1317.6139,0.047829
1319.4776,0.047756
1321.3413,0.047571
1323.2049,0.047258
1325.0686,0.047171
1326.9323,0.047149
1328.7959,0.047067
1330.6596,0.047044
1332.5233,0.047080
1334.3869,0.046997
1336.2506,0.046919
1338.1143,0.047087
1339.9780,0.047572
1341.8416,0.047540
1343.7053,0.047274
1345.5690,0.047189
1347.4326,0.047130
1349.2963,0.047123
1351.1600,0.047179
1353.0236,0.047211
1354.8873,0.047467
1356.7510,0.047605
1358.6146,0.047545
1360.4783,0.047865
1362.3420,0.049144
1364.2056,0.050385
1366.0693,0.050848
1367.9330,0.051550
1369.7967,0.052186
1371.6603,0.052386
1373.5240,0.053241
1375.3877,0.054468
1377.2513,0.055007
1379.1150,0.055519
1380.9787,0.056145
1382.8423,0.056525
1384.7060,0.056688
1386.5697,0.057461
1388.4333,0.058436
1390.2970,0.058342
1392.1607,0.057921
1394.0244,0.058235
1395.8880,0.058913
1397.7517,0.059064
1399.6154,0.059269
1401.4790,0.058782
1403.3427,0.058177
1405.2064,0.058036
1407.0700,0.057630
1408.9337,0.056892
1410.7974,0.056388
1412.6610,0.055767
1414.5247,0.054692
1416.3884,0.053740
1418.2520,0.054126
1420.1157,0.054964
1421.9794,0.054237
1423.8431,0.053966
1425.7067,0.054060
1427.5704,0.054055
1429.4341,0.054984
1431.2977,0.055924
1433.1614,0.055726
1435.0251,0.056156
1436.8887,0.058431
1438.7524,0.059189
1440.6161,0.058965
1442.4797,0.059194
1444.3434,0.059099
1446.2071,0.059088
1448.0707,0.059588
1449.9344,0.059475
1451.7981,0.058450
1453.6618,0.056975
1455.5254,0.056197
1457.3891,0.057401
1459.2528,0.056548
1461.1164,0.054470
1462.9801,0.053258
1464.8438,0.053366
1466.7074,0.052748
1468.5711,0.050980
1470.4348,0.049393
1472.2984,0.049326
1474.1621,0.049524
1476.0258,0.049030
1477.8895,0.048589
1479.7531,0.048232
1481.6168,0.048541
1483.4805,0.048817
1485.3441,0.049110
1487.2078,0.050360
1489.0715,0.053241
1490.9351,0.056158
1492.7988,0.056749
1494.6625,0.057460
1496.5261,0.060583
1498.3898,0.063826
1500.2535,0.065521
1502.1171,0.065845
1503.9808,0.065624
1505.8445,0.068108
1507.7082,0.073943
1509.5718,0.075487
1511.4355,0.076373
1513.2992,0.077289
1515.1628,0.078045
1517.0265,0.078706
1518.8902,0.078459
1520.7538,0.078694
1522.6175,0.079953
1524.4812,0.080104
1526.3448,0.080960
1528.2085,0.081461
1530.0722,0.081060
1531.9359,0.080911
1533.7995,0.081717
1535.6632,0.081036
1537.5269,0.079578
1539.3905,0.079448
1541.2542,0.079915
1543.1179,0.079401
1544.9815,0.078598
1546.8452,0.077203
1548.7089,0.075749
1550.5725,0.074258
1552.4362,0.072392
1554.2999,0.069868
1556.1635,0.067094
1558.0272,0.066136
1559.8909,0.066565
1561.7546,0.064279
1563.6182,0.062249
1565.4819,0.060657
1567.3456,0.059276
1569.2092,0.058717
1571.0729,0.057704
1572.9366,0.055693
1574.8002,0.054542
1576.6639,0.055023
1578.5276,0.054651
1580.3912,0.053740
1582.2549,0.053554
1584.1186,0.053598
1585.9822,0.053794
1587.8459,0.054087
1589.7096,0.054534
1591.5733,0.055217
1593.4369,0.056188
1595.3006,0.057559
1597.1643,0.058960
1599.0279,0.060252
1600.8916,0.061934
1602.7553,0.063993
1604.6189,0.065970
1606.4826,0.067888
1608.3463,0.070423
1610.2099,0.073021
1612.0736,0.074784
1613.9373,0.076006
1615.8010,0.078376
1617.6646,0.081836
1619.5283,0.083071
1621.3920,0.083653
1623.2556,0.085436
1625.1193,0.087124
1626.9830,0.087994
1628.8466,0.089012
1630.7103,0.089573
1632.5740,0.089038
1634.4376,0.088526
1636.3013,0.088622
1638.1650,0.087998
1640.0286,0.086618
1641.8923,0.085236
1643.7560,0.083784
1645.6197,0.082606
1647.4833,0.081289
1649.3470,0.079276
1651.2107,0.077197
1653.0743,0.075698
1654.9380,0.074081
1656.8017,0.072281
1658.6653,0.070103
1660.5290,0.067994
1662.3927,0.065710
1664.2563,0.063311
1666.1200,0.060904
1667.9837,0.058637
1669.8474,0.056437
1671.7110,0.054282
1673.5747,0.052019
1675.4384,0.049767
1677.3020,0.047623
1679.1657,0.045390
1681.0294,0.042841
1682.8930,0.040568
1684.7567,0.038611
1686.6204,0.036239
1688.4840,0.033623
1690.3477,0.031254
1692.2114,0.028756
1694.0750,0.026141
1695.9387,0.023068
1697.8024,0.020184
1699.6661,0.017712
1701.5297,0.015843
1703.3934,0.014233
1705.2571,0.012575
1707.1207,0.011101
1708.9844,0.010004
1710.8481,0.009097
1712.7117,0.008131
1714.5754,0.007195
1716.4391,0.006573
1718.3027,0.006247
1720.1664,0.005945
1722.0301,0.005453
1723.8937,0.004997
1725.7574,0.004538
1727.6211,0.004100
1729.4848,0.003603
1731.3484,0.003204
1733.2121,0.002683
1735.0758,0.002834
1736.9394,0.002667
1738.8031,0.002268
1740.6668,0.002072
1742.5304,0.001866
1744.3941,0.001596
1746.2578,0.001227
1748.1214,0.000841
1749.9851,0.000531
1751.8488,0.000078
1753.7125,-0.000267
1755.5761,-0.000768
1757.4398,-0.000980
1759.3035,-0.001094
1761.1671,-0.001316
1763.0308,-0.001356
1764.8945,-0.001619
1766.7581,-0.001882
1768.6218,-0.001629
1770.4855,-0.001667
1772.3491,-0.001928
1774.2128,-0.002113
1776.0765,-0.002173
1777.9401,-0.001892
1779.8038,-0.001732
1781.6675,-0.001859
1783.5312,-0.002022
1785.3948,-0.001950
1787.2585,-0.002096
1789.1222,-0.002226
1790.9858,-0.002265
1792.8495,-0.002151
1794.7132,-0.002124
1796.5768,-0.002262
1798.4405,-0.002365
1800.3042,-0.002278
1802.1678,-0.002175
1804.0315,-0.002177
1805.8952,-0.002352
1807.7589,-0.002436
1809.6225,-0.002391
1811.4862,-0.002352
1813.3499,-0.002485
1815.2135,-0.002774
1817.0772,-0.002808
1818.9409,-0.002736
1820.8045,-0.002501
1822.6682,-0.002438
1824.5319,-0.002545
1826.3955,-0.002424
1828.2592,-0.002479
1830.1229,-0.002406
1831.9865,-0.002318
1833.8502,-0.002196
1835.7139,-0.002153
1837.5776,-0.002367
1839.4412,-0.002446
1841.3049,-0.002465
1843.1686,-0.002268
1845.0322,-0.002097
1846.8959,-0.002027
1848.7596,-0.001886
1850.6232,-0.001942
1852.4869,-0.002336
1854.3506,-0.002390
1856.2142,-0.002017
1858.0779,-0.002014
1859.9416,-0.002247
1861.8052,-0.002374
1863.6689,-0.002301
1865.5326,-0.002176
1867.3963,-0.002133
1869.2599,-0.002156
1871.1236,-0.002228
1872.9873,-0.002290
1874.8509,-0.002137
1876.7146,-0.002107
1878.5783,-0.002136
1880.4419,-0.001964
1882.3056,-0.001766
1884.1693,-0.001712
1886.0329,-0.001935
1887.8966,-0.002113
1889.7603,-0.001924
1891.6240,-0.001520
1893.4876,-0.001384
1895.3513,-0.001891
1897.2150,-0.002421
1899.0786,-0.002392
1900.9423,-0.002213
1902.8060,-0.001656
1904.6696,-0.001653
1906.5333,-0.002252
1908.3970,-0.001737
1910.2606,-0.001115
1912.1243,-0.001484
1913.9880,-0.001901
1915.8516,-0.001740
1917.7153,-0.001307
1919.5790,-0.001356
1921.4427,-0.002090
1923.3063,-0.002232
1925.1700,-0.001960
1927.0337,-0.001908
1928.8973,-0.001846
1930.7610,-0.001762
1932.6247,-0.002181
1934.4883,-0.002548
1936.3520,-0.001975
1938.2157,-0.001254
1940.0793,-0.001206
1941.9430,-0.000844
1943.8067,-0.000837
1945.6704,-0.001755
1947.5340,-0.002368
1949.3977,-0.001435
1951.2614,-0.000578
1953.1250,-0.000352
1954.9887,-0.000870
1956.8524,-0.001779
1958.7160,-0.002312
1960.5797,-0.002225
1962.4434,-0.001310
1964.3070,0.000124
1966.1707,0.000550
1968.0344,0.000232
1969.8980,0.000749
1971.7617,-0.000125
1973.6254,0.000015
1975.4891,0.001416
1977.3527,0.001380
1979.2164,0.001360
1981.0801,0.001983
1982.9437,0.001572
1984.8074,0.000669
1986.6711,0.000157
1988.5347,0.001080
1990.3984,0.001818
1992.2621,0.000560
1994.1257,-0.000104
1995.9894,-0.000143
1997.8531,-0.000065
1999.7167,0.000694
2001.5804,0.000465
2003.4441,-0.000358
2005.3078,0.000889
2007.1714,0.001520
2009.0351,0.000637
2010.8988,0.000622
2012.7624,0.001224
2014.6261,0.001982
2016.4898,0.000668
2018.3534,-0.000215
2020.2171,0.000616
2022.0808,0.000532
2023.9444,0.000447
2025.8081,0.000554
2027.6718,0.000511
2029.5355,0.000546
2031.3991,0.000405
2033.2628,0.001725
2035.1265,0.003589
2036.9901,0.003375
2038.8538,0.002723
2040.7175,0.002533
2042.5811,0.002490
2044.4448,0.003121
2046.3085,0.003584
2048.1721,0.004254
2050.0358,0.004440
2051.8995,0.003629
2053.7631,0.002818
2055.6268,0.003212
2057.4905,0.003504
2059.3542,0.002688
2061.2178,0.002770
2063.0815,0.003527
2064.9452,0.003344
2066.8088,0.002671
2068.6725,0.001962
2070.5362,0.001873
2072.3998,0.002627
2074.2635,0.003167
2076.1272,0.002749
2077.9908,0.002230
2079.8545,0.002377
2081.7182,0.002097
2083.5819,0.001679
2085.4455,0.001769
2087.3092,0.002117
2089.1729,0.001585
2091.0365,0.000541
2092.9002,0.000218
2094.7639,0.000315
2096.6275,0.000858
2098.4912,0.000937
2100.3549,0.001016
2102.2185,0.001421
2104.0822,0.001148
2105.9459,0.000797
2107.8095,0.000992
2109.6732,0.001337
2111.5369,0.001771
2113.4006,0.001905
2115.2642,0.001652
2117.1279,0.001157
2118.9916,0.000448
2120.8552,0.000078
2122.7189,-0.000100
2124.5826,-0.000361
2126.4462,-0.000680
2128.3099,-0.000909
2130.1736,-0.001165
2132.0372,-0.001140
2133.9009,-0.000171
2135.7646,0.000706
2137.6282,0.000865
2139.4919,0.001396
2141.3556,0.001758
2143.2193,0.001090
2145.0829,0.001093
2146.9466,0.001238
2148.8103,0.000999
2150.6739,0.000819
2152.5376,0.000383
2154.4013,0.000027
2156.2649,-0.000137
2158.1286,0.001379
2159.9923,0.004915
2161.8559,0.006953
2163.7196,0.005167
2165.5833,0.003772
2167.4470,0.004148
2169.3106,0.003605
2171.1743,0.002386
2173.0380,0.001867
2174.9016,0.001989
2176.7653,0.002086
2178.6290,0.002449
2180.4926,0.003899
2182.3563,0.004865
2184.2200,0.003572
2186.0836,0.002403
2187.9473,0.002816
2189.8110,0.003239
2191.6746,0.003278
2193.5383,0.003461
2195.4020,0.003427
2197.2657,0.002665
2199.1293,0.002317
2200.9930,0.003076
2202.8567,0.003624
2204.7203,0.002834
2206.5840,0.002238
2208.4477,0.002820
2210.3113,0.002807
2212.1750,0.002218
2214.0387,0.002411
2215.9023,0.002911
2217.7660,0.002695
2219.6297,0.002791
2221.4934,0.003329
2223.3570,0.003252
2225.2207,0.002997
2227.0844,0.002307
2228.9480,0.001938
2230.8117,0.002763
2232.6754,0.003059
2234.5390,0.002750
2236.4027,0.002817
2238.2664,0.002425
2240.1300,0.002019
2241.9937,0.002602
2243.8574,0.002910
2245.7210,0.002468
2247.5847,0.002399
2249.4484,0.002593
2251.3121,0.002379
2253.1757,0.002130
2255.0394,0.002411
2256.9031,0.002326
2258.7667,0.002231
2260.6304,0.002664
2262.4941,0.002307
2264.3577,0.001911
2266.2214,0.002372
2268.0851,0.002775
2269.9487,0.002789
2271.8124,0.002784
2273.6761,0.002619
2275.5397,0.002421
2277.4034,0.002608
2279.2671,0.002816
2281.1308,0.003284
2282.9944,0.003476
2284.8581,0.003221
2286.7218,0.003449
2288.5854,0.003185
2290.4491,0.002639
2292.3128,0.002803
2294.1764,0.002959
2296.0401,0.002735
2297.9038,0.002643
2299.7674,0.002537
2301.6311,0.002334
2303.4948,0.002333
2305.3585,0.002489
2307.2221,0.002272
2309.0858,0.002057
2310.9495,0.002526
2312.8131,0.002574
2314.6768,0.002446
2316.5405,0.002658
2318.4041,0.002988
2320.2678,0.003305
2322.1315,0.003577
2323.9951,0.003686
2325.8588,0.002869
2327.7225,0.001774
2329.5861,0.001664
2331.4498,0.001823
2333.3135,0.001746
2335.1772,0.001981
2337.0408,0.001910
2338.9045,0.001838
2340.7682,0.002522
2342.6318,0.003344
2344.4955,0.003309
2346.3592,0.002764
2348.2228,0.001778
2350.0865,0.001043
2351.9502,0.001095
2353.8138,0.001190
2355.6775,0.001015
2357.5412,0.001256
2359.4049,0.001827
2361.2685,0.002333
2363.1322,0.002356
2364.9959,0.002265
2366.8595,0.002591
2368.7232,0.002931
2370.5869,0.003660
2372.4505,0.003964
2374.3142,0.003351
2376.1779,0.003209
2378.0415,0.003298
2379.9052,0.002829
2381.7689,0.002417
2383.6325,0.002449
2385.4962,0.002439
2387.3599,0.002343
2389.2236,0.002277
2391.0872,0.002289
2392.9509,0.002401
2394.8146,0.002510
2396.6782,0.002334
2398.5419,0.002242
2400.4056,0.002513
2402.2692,0.002692
2404.1329,0.002427
2405.9966,0.002556
2407.8602,0.003131
2409.7239,0.003292
2411.5876,0.003128
2413.4512,0.003140
2415.3149,0.003121
2417.1786,0.003005
2419.0423,0.003019
2420.9059,0.003014
2422.7696,0.003069
2424.6333,0.003248
2426.4969,0.003245
2428.3606,0.003217
2430.2243,0.003581
2432.0879,0.003840
2433.9516,0.003825
2435.8153,0.003882
2437.6789,0.003828
2439.5426,0.003711
2441.4063,0.003803
2443.2700,0.003947
2445.1336,0.003958
2446.9973,0.003946
2448.8610,0.004065
2450.7246,0.004364
2452.5883,0.004610
2454.4520,0.004556
2456.3156,0.004111
2458.1793,0.004259
2460.0430,0.004674
2461.9066,0.004422
2463.7703,0.004170
2465.6340,0.004371
2467.4976,0.004549
2469.3613,0.004697
2471.2250,0.005040
2473.0887,0.005084
2474.9523,0.004754
2476.8160,0.004629
2478.6797,0.004647
2480.5433,0.004697
2482.4070,0.004823
2484.2707,0.005044
2486.1343,0.005087
2487.9980,0.005122
2489.8617,0.005129
2491.7253,0.005001
2493.5890,0.004854
2495.4527,0.005142
2497.3164,0.005550
2499.1800,0.005801
2501.0437,0.005677
2502.9074,0.005612
2504.7710,0.005687
2506.6347,0.005827
2508.4984,0.005866
2510.3620,0.005868
2512.2257,0.005989
2514.0894,0.006104
2515.9530,0.005831
2517.8167,0.005412
2519.6804,0.005388
2521.5440,0.005974
2523.4077,0.006304
2525.2714,0.006102
2527.1351,0.006184
2528.9987,0.006365
2530.8624,0.006031
2532.7261,0.006093
2534.5897,0.006500
2536.4534,0.006440
2538.3171,0.006339
2540.1807,0.006336
2542.0444,0.006299
2543.9081,0.006738
2545.7717,0.007157
2547.6354,0.006956
2549.4991,0.006695
2551.3627,0.006770
2553.2264,0.006790
2555.0901,0.006899
2556.9538,0.006886
2558.8174,0.006877
2560.6811,0.007203
2562.5448,0.007252
2564.4084,0.007085
2566.2721,0.007031
2568.1358,0.007126
2569.9994,0.007471
2571.8631,0.007596
2573.7268,0.007543
2575.5904,0.007508
2577.4541,0.007620
2579.3178,0.007908
2581.1815,0.007991
2583.0451,0.007745
2584.9088,0.007612
2586.7725,0.007826
2588.6361,0.008085
2590.4998,0.008146
2592.3635,0.008131
2594.2271,0.008192
2596.0908,0.008395
2597.9545,0.008631
2599.8181,0.008834
2601.6818,0.008787
2603.5455,0.008735
2605.4091,0.009070
2607.2728,0.009334
2609.1365,0.009252
2611.0002,0.009082
2612.8638,0.009057
2614.7275,0.009359
2616.5912,0.009778
2618.4548,0.009762
2620.3185,0.009511
2622.1822,0.009535
2624.0458,0.009775
2625.9095,0.009860
2627.7732,0.009874
2629.6368,0.009950
2631.5005,0.009988
2633.3642,0.010223
2635.2279,0.010528
2637.0915,0.010531
2638.9552,0.010504
2640.8189,0.010490
2642.6825,0.010474
2644.5462,0.010545
2646.4099,0.010610
2648.2735,0.010643
2650.1372,0.010671
2652.0009,0.010775
2653.8645,0.010886
2655.7282,0.010777
2657.5919,0.010696
2659.4555,0.010784
2661.3192,0.010923
2663.1829,0.010814
2665.0466,0.010673
2666.9102,0.010733
2668.7739,0.010811
2670.6376,0.010730
2672.5012,0.010770
2674.3649,0.010861
2676.2286,0.010992
2678.0922,0.011131
2679.9559,0.011179
2681.8196,0.011234
2683.6832,0.011351
2685.5469,0.011396
2687.4106,0.011454
2689.2742,0.011525
2691.1379,0.011640
2693.0016,0.011771
2694.8653,0.011813
2696.7289,0.011874
2698.5926,0.011801
2700.4563,0.011732
2702.3199,0.011903
2704.1836,0.012073
2706.0473,0.012294
2707.9109,0.012480
2709.7746,0.012583
2711.6383,0.012630
2713.5019,0.012655
2715.3656,0.012729
2717.2293,0.012780
2719.0930,0.012851
2720.9566,0.013210
2722.8203,0.013474
2724.6840,0.013592
2726.5476,0.013780
2728.4113,0.013899
2730.2750,0.013944
2732.1386,0.013827
2734.0023,0.013956
2735.8660,0.014147
2737.7296,0.014260
2739.5933,0.014488
2741.4570,0.014593
2743.3206,0.014592
2745.1843,0.014812
2747.0480,0.015019
2748.9117,0.015113
2750.7753,0.015283
2752.6390,0.015422
2754.5027,0.015481
2756.3663,0.015488
2758.2300,0.015588
2760.0937,0.015745
2761.9573,0.015937
2763.8210,0.016069
2765.6847,0.016195
2767.5483,0.016514
2769.4120,0.016788
2771.2757,0.016880
2773.1394,0.016967
2775.0030,0.017112
2776.8667,0.017260
2778.7304,0.017408
2780.5940,0.017442
2782.4577,0.017469
2784.3214,0.017546
2786.1850,0.017674
2788.0487,0.017818
2789.9124,0.018105
2791.7760,0.018409
2793.6397,0.018537
2795.5034,0.018547
2797.3670,0.018732
2799.2307,0.018989
2801.0944,0.019112
2802.9581,0.019210
2804.8217,0.019385
2806.6854,0.019775
2808.5491,0.020004
2810.4127,0.020047
2812.2764,0.020073
2814.1401,0.020150
2816.0037,0.020307
2817.8674,0.020608
2819.7311,0.020768
2821.5947,0.020726
2823.4584,0.020996
2825.3221,0.021332
2827.1857,0.021545
2829.0494,0.021863
2830.9131,0.022157
2832.7768,0.022455
2834.6404,0.022506
2836.5041,0.022677
2838.3678,0.023047
2840.2314,0.023205
2842.0951,0.023680
2843.9588,0.024618
2845.8224,0.025329
2847.6861,0.025892
2849.5498,0.026508
2851.4134,0.026668
2853.2771,0.026715
2855.1408,0.026959
2857.0045,0.027154
2858.8681,0.027174
2860.7318,0.027189
2862.5955,0.027329
2864.4591,0.027631
2866.3228,0.028014
2868.1865,0.028431
2870.0501,0.028512
2871.9138,0.028632
2873.7775,0.028955
2875.6411,0.029024
2877.5048,0.028874
2879.3685,0.028704
2881.2321,0.028778
2883.0958,0.028834
2884.9595,0.028636
2886.8232,0.028494
2888.6868,0.028790
2890.5505,0.029066
2892.4142,0.029280
2894.2778,0.029443
2896.1415,0.029626
2898.0052,0.029779
2899.8688,0.029927
2901.7325,0.030128
2903.5962,0.030604
2905.4598,0.031071
2907.3235,0.031416
2909.1872,0.031787
2911.0509,0.032351
2912.9145,0.032813
2914.7782,0.033289
2916.6419,0.033881
2918.5055,0.034502
2920.3692,0.035139
2922.2329,0.035300
2924.0965,0.035413
2925.9602,0.035671
2927.8239,0.035517
2929.6875,0.035253
2931.5512,0.035134
2933.4149,0.034731
2935.2785,0.034489
2937.1422,0.034491
2939.0059,0.034061
2940.8696,0.033612
2942.7332,0.033431
2944.5969,0.033101
2946.4606,0.032785
2948.3242,0.032680
2950.1879,0.032766
2952.0516,0.033058
2953.9152,0.033344
2955.7789,0.033385
2957.6426,0.033251
2959.5062,0.033332
2961.3699,0.033180
2963.2336,0.033075
2965.0972,0.032848
2966.9609,0.032551
2968.8246,0.032060
2970.6883,0.031713
2972.5519,0.031288
2974.4156,0.030831
2976.2793,0.030530
2978.1429,0.029824
2980.0066,0.029335
2981.8703,0.029122
2983.7339,0.028635
2985.5976,0.028267
2987.4613,0.027892
2989.3249,0.027334
2991.1886,0.027160
2993.0523,0.027415
2994.9160,0.027367
2996.7796,0.027320
2998.6433,0.026928
3000.5070,0.026855
3002.3706,0.027253
3004.2343,0.027703
3006.0980,0.027572
3007.9616,0.027429
3009.8253,0.027634
3011.6890,0.027849
3013.5526,0.028025
3015.4163,0.028037
3017.2800,0.028211
3019.1436,0.028533
3021.0073,0.028703
3022.8710,0.028829
3024.7347,0.028911
3026.5983,0.029347
3028.4620,0.029978
3030.3257,0.030083
3032.1893,0.029993
3034.0530,0.030255
3035.9167,0.030671
3037.7803,0.030948
3039.6440,0.031149
3041.5077,0.031413
3043.3713,0.031390
3045.2350,0.031379
3047.0987,0.031784
3048.9624,0.032250
3050.8260,0.032440
3052.6897,0.032537
3054.5534,0.033103
3056.4170,0.033248
3058.2807,0.033073
3060.1444,0.033260
3062.0080,0.033419
3063.8717,0.033350
3065.7354,0.033746
3067.5990,0.033964
3069.4627,0.033593
3071.3264,0.033658
3073.1900,0.033721
3075.0537,0.033768
3076.9174,0.033733
3078.7811,0.033643
3080.6447,0.033713
3082.5084,0.033818
3084.3721,0.033496
3086.2357,0.033255
3088.0994,0.033145
3089.9631,0.033026
3091.8267,0.032943
3093.6904,0.033300
3095.5541,0.033389
3097.4177,0.033267
3099.2814,0.033470
3101.1451,0.033256
3103.0087,0.032873
3104.8724,0.033017
3106.7361,0.033139
3108.5998,0.033316
3110.4634,0.033264
3112.3271,0.033418
3114.1908,0.033367
3116.0544,0.033486
3117.9181,0.033670
3119.7818,0.033623
3121.6454,0.033719
3123.5091,0.034036
3125.3728,0.034166
3127.2364,0.034319
3129.1001,0.034304
3130.9638,0.034326
3132.8275,0.034491
3134.6911,0.034801
3136.5548,0.035065
3138.4185,0.035441
3140.2821,0.035855
3142.1458,0.036300
3144.0095,0.036597
3145.8731,0.036684
3147.7368,0.037086
3149.6005,0.037412
3151.4641,0.037470
3153.3278,0.037802
3155.1915,0.038063
3157.0551,0.038472
3158.9188,0.038879
3160.7825,0.039088
3162.6462,0.039134
3164.5098,0.039267
3166.3735,0.039435
3168.2372,0.039641
3170.1008,0.039713
3171.9645,0.040408
3173.8282,0.041132
3175.6918,0.041133
3177.5555,0.041169
3179.4192,0.041582
3181.2828,0.041767
3183.1465,0.042175
3185.0102,0.042524
3186.8739,0.042582
3188.7375,0.042462
3190.6012,0.042715
3192.4649,0.042840
3194.3285,0.043259
3196.1922,0.043302
3198.0559,0.043521
3199.9195,0.043777
3201.7832,0.043880
3203.6469,0.044130
3205.5105,0.044675
3207.3742,0.044696
3209.2379,0.044541
3211.1015,0.044294
3212.9652,0.044205
3214.8289,0.044226
3216.6926,0.044512
3218.5562,0.044635
3220.4199,0.044906
3222.2836,0.045102
3224.1472,0.045177
3226.0109,0.045544
3227.8746,0.045389
3229.7382,0.045487
3231.6019,0.046107
3233.4656,0.046149
3235.3292,0.045936
3237.1929,0.046134
3239.0566,0.046925
3240.9202,0.046997
3242.7839,0.046779
3244.6476,0.046823
3246.5113,0.046914
3248.3749,0.047049
3250.2386,0.047541
3252.1023,0.047829
3253.9659,0.048162
3255.8296,0.048425
3257.6933,0.048583
3259.5569,0.048978
3261.4206,0.049089
3263.2843,0.048864
3265.1479,0.049399
3267.0116,0.049876
3268.8753,0.050065
3270.7390,0.050092
3272.6026,0.049578
3274.4663,0.049140
3276.3300,0.049594
3278.1936,0.049798
3280.0573,0.049646
3281.9210,0.049466
3283.7846,0.049753
3285.6483,0.049605
3287.5120,0.049554
3289.3756,0.049301
3291.2393,0.048860
3293.1030,0.048316
3294.9666,0.048012
3296.8303,0.047649
3298.6940,0.047521
3300.5577,0.047211
3302.4213,0.046896
3304.2850,0.046781
3306.1487,0.046478
3308.0123,0.046010
3309.8760,0.045318
3311.7397,0.044482
3313.6033,0.044189
3315.4670,0.043988
3317.3307,0.043630
3319.1943,0.043279
3321.0580,0.043128
3322.9217,0.042638
3324.7854,0.042537
3326.6490,0.042357
3328.5127,0.042104
3330.3764,0.041739
3332.2400,0.041245
3334.1037,0.040883
3335.9674,0.040755
3337.8310,0.040298
3339.6947,0.040129
3341.5584,0.040022
3343.4220,0.039644
3345.2857,0.038969
3347.1494,0.038569
3349.0130,0.038803
3350.8767,0.038837
3352.7404,0.037961
3354.6041,0.037693
3356.4677,0.037918
3358.3314,0.037689
3360.1951,0.037321
3362.0587,0.036994
3363.9224,0.037028
3365.7861,0.037136
3367.6497,0.036508
3369.5134,0.035809
3371.3771,0.035481
3373.2407,0.035583
3375.1044,0.035790
3376.9681,0.035554
3378.8317,0.034873
3380.6954,0.034544
3382.5591,0.034651
3384.4228,0.034526
3386.2864,0.034329
3388.1501,0.034248
3390.0138,0.033908
3391.8774,0.033478
3393.7411,0.032922
3395.6048,0.032982
3397.4684,0.032709
3399.3321,0.032732
3401.1958,0.032507
3403.0594,0.031902
3404.9231,0.031976
3406.7868,0.032216
3408.6505,0.031702
3410.5141,0.031620
3412.3778,0.031666
3414.2415,0.031262
3416.1051,0.030529
3417.9688,0.030094
3419.8325,0.029543
3421.6961,0.029621
3423.5598,0.030209
3425.4235,0.030271
3427.2871,0.029347
3429.1508,0.028444
3431.0145,0.028013
3432.8781,0.028220
3434.7418,0.028667
3436.6055,0.028574
3438.4692,0.027721
3440.3328,0.027157
3442.1965,0.027255
3444.0602,0.027645
3445.9238,0.027461
3447.7875,0.026650
3449.6512,0.026603
3451.5148,0.026401
3453.3785,0.025543
3455.2422,0.025087
3457.1058,0.025326
3458.9695,0.025600
3460.8332,0.025392
3462.6969,0.024687
3464.5605,0.024206
3466.4242,0.024211
3468.2879,0.023878
3470.1515,0.023280
3472.0152,0.023003
3473.8789,0.022426
3475.7425,0.022220
3477.6062,0.022583
3479.4699,0.022576
3481.3335,0.022300
3483.1972,0.022020
3485.0609,0.021747
3486.9245,0.020971
3488.7882,0.020545
3490.6519,0.020481
3492.5156,0.020073
3494.3792,0.019616
3496.2429,0.019590
3498.1066,0.018925
3499.9702,0.018148
3501.8339,0.018337
3503.6976,0.018256
3505.5612,0.017464
3507.4249,0.017376
3509.2886,0.017568
3511.1522,0.017266
3513.0159,0.016887
3514.8796,0.016966
3516.7432,0.016837
3518.6069,0.015913
3520.4706,0.015277
3522.3343,0.015320
3524.1979,0.015405
3526.0616,0.014847
3527.9253,0.014280
3529.7889,0.014142
3531.6526,0.014374
3533.5163,0.014780
3535.3799,0.014337
3537.2436,0.013130
3539.1073,0.012373
3540.9709,0.012462
3542.8346,0.011858
3544.6983,0.010921
3546.5620,0.011083
3548.4256,0.011930
3550.2893,0.011935
3552.1530,0.011211
3554.0166,0.010874
3555.8803,0.010321
3557.7440,0.009643
3559.6076,0.009287
3561.4713,0.008728
3563.3350,0.007993
3565.1986,0.007169
3567.0623,0.006477
3568.9260,0.006724
3570.7896,0.007272
3572.6533,0.007041
3574.5170,0.006745
3576.3807,0.006630
3578.2443,0.006090
3580.1080,0.006046
3581.9717,0.006296
3583.8353,0.005894
3585.6990,0.005042
3587.5627,0.004265
3589.4263,0.004202
3591.2900,0.003603
3593.1537,0.002321
3595.0173,0.002218
3596.8810,0.002838
3598.7447,0.002685
3600.6084,0.002147
3602.4720,0.002349
3604.3357,0.002569
3606.1994,0.001727
3608.0630,0.000363
3609.9267,0.000172
3611.7904,0.000483
3613.6540,0.000444
3615.5177,0.000676
3617.3814,0.000734
3619.2450,-0.000115
3621.1087,-0.001013
3622.9724,-0.001193
3624.8360,-0.001581
3626.6997,-0.002420
3628.5634,-0.002919
3630.4271,-0.002218
3632.2907,-0.001559
3634.1544,-0.002196
3636.0181,-0.002978
3637.8817,-0.003118
3639.7454,-0.002995
3641.6091,-0.003174
3643.4727,-0.003579
3645.3364,-0.004118
3647.2001,-0.004649
3649.0637,-0.004958
3650.9274,-0.004985
3652.7911,-0.004664
3654.6547,-0.004742
3656.5184,-0.005126
3658.3821,-0.005165
3660.2458,-0.005176
3662.1094,-0.005284
3663.9731,-0.005626
3665.8368,-0.006208
3667.7004,-0.006975
3669.5641,-0.007756
3671.4278,-0.007489
3673.2914,-0.007057
3675.1551,-0.007713
3677.0188,-0.007281
3678.8824,-0.006568
3680.7461,-0.007071
3682.6098,-0.007441
3684.4735,-0.007350
3686.3371,-0.007549
3688.2008,-0.008425
3690.0645,-0.008379
3691.9281,-0.007463
3693.7918,-0.007438
3695.6555,-0.007613
3697.5191,-0.007689
3699.3828,-0.007725
3701.2465,-0.008167
3703.1101,-0.008427
3704.9738,-0.007826
3706.8375,-0.007523
3708.7011,-0.007616
3710.5648,-0.007937
3712.4285,-0.008298
3714.2922,-0.008058
3716.1558,-0.007975
3718.0195,-0.008347
3719.8832,-0.008612
3721.7468,-0.008706
3723.6105,-0.008707
3725.4742,-0.008298
3727.3378,-0.007875
3729.2015,-0.007983
3731.0652,-0.008249
3732.9288,-0.008804
3734.7925,-0.009317
3736.6562,-0.008899
3738.5199,-0.008317
3740.3835,-0.007982
3742.2472,-0.008226
3744.1109,-0.009177
3745.9745,-0.009172
3747.8382,-0.008181
3749.7019,-0.008166
3751.5655,-0.008457
3753.4292,-0.008164
3755.2929,-0.008123
3757.1565,-0.008332
3759.0202,-0.008148
3760.8839,-0.007860
3762.7475,-0.008125
3764.6112,-0.008328
3766.4749,-0.008142
3768.3386,-0.008232
3770.2022,-0.008434
3772.0659,-0.008278
3773.9296,-0.008303
3775.7932,-0.008371
3777.6569,-0.008261
3779.5206,-0.008389
3781.3842,-0.008404
3783.2479,-0.008121
3785.1116,-0.008201
3786.9752,-0.008364
3788.8389,-0.008258
3790.7026,-0.008078
3792.5662,-0.007872
3794.4299,-0.008022
3796.2936,-0.008654
3798.1573,-0.008716
3800.0209,-0.008662
3801.8846,-0.009221
3803.7483,-0.009062
3805.6119,-0.008694
3807.4756,-0.008746
3809.3393,-0.008359
3811.2029,-0.008015
3813.0666,-0.008349
3814.9303,-0.009013
3816.7939,-0.009046
3818.6576,-0.008417
3820.5213,-0.008600
3822.3850,-0.008816
3824.2486,-0.008283
3826.1123,-0.008507
3827.9760,-0.008739
3829.8396,-0.008472
3831.7033,-0.008325
3833.5670,-0.008245
3835.4306,-0.008377
3837.2943,-0.008735
3839.1580,-0.008933
3841.0216,-0.008868
3842.8853,-0.008564
3844.7490,-0.008355
3846.6126,-0.008083
3848.4763,-0.008285
3850.3400,-0.008997
3852.2037,-0.009546
3854.0673,-0.009092
3855.9310,-0.008087
3857.7947,-0.008050
3859.6583,-0.008264
3861.5220,-0.008282
3863.3857,-0.008469
3865.2493,-0.008576
3867.1130,-0.008382
3868.9767,-0.008234
3870.8403,-0.008351
3872.7040,-0.008134
3874.5677,-0.008030
3876.4314,-0.008166
3878.2950,-0.008556
3880.1587,-0.008882
3882.0224,-0.008462
3883.8860,-0.008129
3885.7497,-0.008366
3887.6134,-0.008059
3889.4770,-0.008193
3891.3407,-0.009021
3893.2044,-0.008677
3895.0680,-0.007871
3896.9317,-0.008233
3898.7954,-0.008634
3900.6590,-0.008388
3902.5227,-0.008339
3904.3864,-0.008260
3906.2501,-0.007891
3908.1137,-0.007774
3909.9774,-0.007963
3911.8411,-0.008217
3913.7047,-0.007970
3915.5684,-0.007874
3917.4321,-0.007994
3919.2957,-0.008090
3921.1594,-0.008100
3923.0231,-0.007792
3924.8867,-0.007785
3926.7504,-0.007991
3928.6141,-0.007838
3930.4777,-0.007928
3932.3414,-0.008206
3934.2051,-0.008081
3936.0688,-0.007649
3937.9324,-0.007728
3939.7961,-0.007950
3941.6598,-0.008035
3943.5234,-0.007980
3945.3871,-0.007795
3947.2508,-0.007647
3949.1144,-0.007783
3950.9781,-0.007788
3952.8418,-0.007695
3954.7054,-0.007451
3956.5691,-0.007501
3958.4328,-0.007852
3960.2965,-0.007884
3962.1601,-0.007670
3964.0238,-0.007718
3965.8875,-0.007566
3967.7511,-0.007631
3969.6148,-0.007875
3971.4785,-0.007813
3973.3421,-0.007740
3975.2058,-0.007502
3977.0695,-0.007196
3978.9331,-0.007361
3980.7968,-0.007497
3982.6605,-0.007412
3984.5241,-0.007523
3986.3878,-0.007960
3988.2515,-0.008050
3990.1152,-0.007908
3991.9788,-0.007753
3993.8425,-0.007648
3995.7062,-0.007807
3997.5698,-0.007799
3999.4335,-0.007724
