Wavenumber,Intensity
650.4205,0.157155
652.2841,0.154341
654.1478,0.153058
656.0115,0.150812
657.8751,0.149247
659.7388,0.148340
661.6025,0.148888
663.4661,0.150349
665.3298,0.148354
667.1935,0.148466
669.0571,0.152159
670.9208,0.148033
672.7845,0.144979
674.6481,0.144577
676.5118,0.143604
678.3755,0.141440
680.2392,0.139530
682.1028,0.138631
683.9665,0.137528
685.8302,0.135959
687.6938,0.134909
689.5575,0.134873
691.4212,0.134521
693.2848,0.133065
695.1485,0.131389
697.0122,0.131133
698.8758,0.131233
700.7395,0.130047
702.6032,0.128459
704.4669,0.127176
706.3305,0.125520
708.1942,0.123851
710.0579,0.122177
711.9215,0.120234
713.7852,0.119118
715.6489,0.118633
717.5125,0.117493
719.3762,0.116488
721.2399,0.114897
723.1035,0.112685
724.9672,0.111253
726.8309,0.110518
728.6945,0.109587
730.5582,0.109015
732.4219,0.108740
734.2856,0.107968
736.1492,0.106878
738.0129,0.106632
739.8766,0.106619
741.7402,0.105814
743.6039,0.104585
745.4676,0.103945
747.3312,0.103406
749.1949,0.102335
751.0586,0.100910
752.9222,0.100339
754.7859,0.100068
756.6496,0.099419
758.5132,0.098403
760.3769,0.097560
762.2406,0.097174
764.1043,0.097352
765.9679,0.096983
767.8316,0.096202
769.6953,0.095377
771.5589,0.094177
773.4226,0.093264
775.2863,0.092672
777.1499,0.091827
779.0136,0.091010
780.8773,0.090288
782.7409,0.089576
784.6046,0.088555
786.4683,0.087365
788.3320,0.086291
790.1956,0.085758
792.0593,0.085277
793.9230,0.084468
795.7866,0.083995
797.6503,0.083811
799.5140,0.083447
801.3776,0.083202
803.2413,0.083152
805.1050,0.083030
806.9686,0.082495
808.8323,0.081931
810.6960,0.081414
812.5596,0.081184
814.4233,0.081388
816.2870,0.081254
818.1507,0.080350
820.0143,0.079354
821.8780,0.078031
823.7417,0.076530
825.6053,0.075238
827.4690,0.074051
829.3327,0.072786
831.1963,0.071484
833.0600,0.070359
834.9237,0.069625
836.7873,0.069073
838.6510,0.068166
840.5147,0.066832
842.3784,0.065837
844.2420,0.065114
846.1057,0.064553
847.9694,0.064241
849.8330,0.063747
851.6967,0.063168
853.5604,0.062861
855.4240,0.062766
857.2877,0.062916
859.1514,0.063017
861.0150,0.063156
862.8787,0.063240
864.7424,0.063330
866.6060,0.063637
868.4697,0.063973
870.3334,0.064089
872.1971,0.064176
874.0607,0.064216
875.9244,0.063999
877.7881,0.063574
879.6517,0.063086
881.5154,0.062532
883.3791,0.061937
885.2427,0.061554
887.1064,0.061504
888.9701,0.061491
890.8337,0.061439
892.6974,0.061528
894.5611,0.061540
896.4247,0.061311
898.2884,0.060796
900.1521,0.060085
902.0158,0.059509
903.8794,0.059044
905.7431,0.058611
907.6068,0.058280
909.4704,0.058120
911.3341,0.058204
913.1978,0.058457
915.0614,0.058701
916.9251,0.058860
918.7888,0.058939
920.6524,0.059084
922.5161,0.059107
924.3798,0.059080
926.2435,0.059160
928.1071,0.059368
929.9708,0.059632
931.8345,0.059875
933.6981,0.060221
935.5618,0.060676
937.4255,0.061385
939.2891,0.062540
941.1528,0.063709
943.0165,0.065049
944.8801,0.066373
946.7438,0.067219
948.6075,0.067681
950.4711,0.068140
952.3348,0.068771
954.1985,0.069635
956.0622,0.070835
957.9258,0.072540
959.7895,0.074695
961.6532,0.077182
963.5168,0.079685
965.3805,0.081749
967.2442,0.083106
969.1078,0.083811
970.9715,0.084000
972.8352,0.084134
974.6988,0.084620
976.5625,0.085569
978.4262,0.087046
980.2899,0.088868
982.1535,0.090896
984.0172,0.093051
985.8809,0.095131
987.7445,0.097309
989.6082,0.099660
991.4719,0.102047
993.3355,0.104381
995.1992,0.106650
997.0629,0.108884
998.9265,0.110998
1000.7902,0.112961
1002.6539,0.114878
1004.5175,0.116957
1006.3812,0.119415
1008.2449,0.122428
1010.1086,0.125769
1011.9722,0.129116
1013.8359,0.132445
1015.6996,0.135516
1017.5632,0.138051
1019.4269,0.139990
1021.2906,0.141428
1023.1542,0.142376
1025.0179,0.143168
1026.8816,0.143986
1028.7452,0.144473
1030.6089,0.144729
1032.4726,0.144812
1034.3362,0.144391
1036.1999,0.143485
1038.0636,0.142392
1039.9273,0.141174
1041.7909,0.140022
1043.6546,0.139139
1045.5183,0.138471
1047.3819,0.137919
1049.2456,0.137574
1051.1093,0.137276
1052.9729,0.137012
1054.8366,0.136862
1056.7003,0.136703
1058.5639,0.136350
1060.4276,0.135781
1062.2913,0.135231
1064.1550,0.134870
1066.0186,0.134530
1067.8823,0.134174
1069.7460,0.133688
1071.6096,0.132950
1073.4733,0.131867
1075.3370,0.130225
1077.2006,0.127986
1079.0643,0.125197
1080.9280,0.122039
1082.7916,0.118604
1084.6553,0.114895
1086.5190,0.111348
1088.3826,0.108122
1090.2463,0.105355
1092.1100,0.103076
1093.9737,0.101127
1095.8373,0.099517
1097.7010,0.098067
1099.5647,0.096743
1101.4283,0.095661
1103.2920,0.094862
1105.1557,0.094214
1107.0193,0.093710
1108.8830,0.093361
1110.7467,0.093091
1112.6103,0.092771
1114.4740,0.092190
1116.3377,0.091227
1118.2014,0.090067
1120.0650,0.088858
1121.9287,0.087673
1123.7924,0.086515
1125.6560,0.085231
1127.5197,0.083931
1129.3834,0.082542
1131.2470,0.081070
1133.1107,0.079565
1134.9744,0.078022
1136.8380,0.076631
1138.7017,0.075448
1140.5654,0.074479
1142.4290,0.073838
1144.2927,0.073542
1146.1564,0.073555
1148.0201,0.073796
1149.8837,0.074123
1151.7474,0.074275
1153.6111,0.074315
1155.4747,0.074248
1157.3384,0.074025
1159.2021,0.073583
1161.0657,0.072934
1162.9294,0.072024
1164.7931,0.070732
1166.6567,0.069157
1168.5204,0.067375
1170.3841,0.065304
1172.2477,0.063000
1174.1114,0.060799
1175.9751,0.058779
1177.8388,0.057034
1179.7024,0.055833
1181.5661,0.055253
1183.4298,0.055114
1185.2934,0.055288
1187.1571,0.055716
1189.0208,0.056309
1190.8844,0.057027
1192.7481,0.057908
1194.6118,0.058951
1196.4754,0.060223
1198.3391,0.061604
1200.2028,0.063056
1202.0665,0.064445
1203.9301,0.065602
1205.7938,0.066571
1207.6575,0.067342
1209.5211,0.067879
1211.3848,0.068408
1213.2485,0.069007
1215.1121,0.069717
1216.9758,0.070540
1218.8395,0.071530
1220.7031,0.072707
1222.5668,0.073811
1224.4305,0.074883
1226.2941,0.075956
1228.1578,0.076813
1230.0215,0.077487
1231.8852,0.078136
1233.7488,0.078718
1235.6125,0.079078
1237.4762,0.079069
1239.3398,0.078977
1241.2035,0.078812
1243.0672,0.078300
1244.9308,0.077608
1246.7945,0.076925
1248.6582,0.076167
1250.5218,0.075336
1252.3855,0.074538
1254.2492,0.073805
1256.1129,0.073043
1257.9765,0.072283
1259.8402,0.071817
1261.7039,0.071371
1263.5675,0.070751
1265.4312,0.070473
1267.2949,0.070220
1269.1585,0.069823
1271.0222,0.069506
1272.8859,0.069175
1274.7495,0.068867
1276.6132,0.068766
1278.4769,0.068695
1280.3405,0.068615
1282.2042,0.068461
1284.0679,0.068333
1285.9316,0.068343
1287.7952,0.068514
1289.6589,0.068536
1291.5226,0.068508
1293.3862,0.068715
1295.2499,0.069169
1297.1136,0.069747
1298.9772,0.070340
1300.8409,0.070928
1302.7046,0.071505
1304.5682,0.072123
1306.4319,0.072628
1308.2956,0.073066
1310.1592,0.073520
1312.0229,0.074002
1313.8866,0.074201
1315.7503,0.074034
1317.6139,0.073990
1319.4776,0.073702
1321.3413,0.072969
1323.2049,0.072215
1325.0686,0.071655
1326.9323,0.071202
1328.7959,0.070845
1330.6596,0.070508
1332.5233,0.070128
1334.3869,0.069691
1336.2506,0.069729
1338.1143,0.070577
1339.9780,0.071293
1341.8416,0.070797
1343.7053,0.070168
1345.5690,0.069849
1347.4326,0.069627
1349.2963,0.069584
1351.1600,0.069519
1353.0236,0.069470
1354.8873,0.069611
1356.7510,0.069585
1358.6146,0.069588
1360.4783,0.070693
1362.3420,0.073097
1364.2056,0.074432
1366.0693,0.074892
1367.9330,0.076061
1369.7967,0.076890
1371.6603,0.077864
1373.5240,0.080215
1375.3877,0.081447
1377.2513,0.081127
1379.1150,0.081290
1380.9787,0.081135
1382.8423,0.080539
1384.7060,0.080167
1386.5697,0.081407
1388.4333,0.081652
1390.2970,0.079814
1392.1607,0.078940
1394.0244,0.080417
1395.8880,0.081545
1397.7517,0.081547
1399.6154,0.081664
1401.4790,0.080095
1403.3427,0.079623
1405.2064,0.080020
1407.0700,0.079147
1408.9337,0.078317
1410.7974,0.077895
1412.6610,0.076916
1414.5247,0.075674
1416.3884,0.075645
1418.2520,0.078606
1420.1157,0.079604
1421.9794,0.077651
1423.8431,0.077765
1425.7067,0.077503
1427.5704,0.077783
1429.4341,0.079895
1431.2977,0.080628
1433.1614,0.080163
1435.0251,0.082797
1436.8887,0.087985
1438.7524,0.087466
1440.6161,0.086225
1442.4797,0.086287
1444.3434,0.085974
1446.2071,0.086584
1448.0707,0.087641
1449.9344,0.086233
1451.7981,0.083639
1453.6618,0.081320
1455.5254,0.083208
1457.3891,0.087171
1459.2528,0.082285
1461.1164,0.077078
1462.9801,0.075657
1464.8438,0.076297
1466.7074,0.073660
1468.5711,0.069942
1470.4348,0.068655
1472.2984,0.070501
1474.1621,0.069860
1476.0258,0.067887
1477.8895,0.065971
1479.7531,0.064970
1481.6168,0.065180
1483.4805,0.064807
1485.3441,0.065189
1487.2078,0.068279
1489.0715,0.073649
1490.9351,0.076705
1492.7988,0.075526
1494.6625,0.077437
1496.5261,0.084262
1498.3898,0.088672
1500.2535,0.088826
1502.1171,0.087557
1503.9808,0.088987
1505.8445,0.100817
1507.7082,0.112226
1509.5718,0.109403
1511.4355,0.108506
1513.2992,0.109335
1515.1628,0.111300
1517.0265,0.113572
1518.8902,0.113623
1520.7538,0.117732
1522.6175,0.120320
1524.4812,0.119243
1526.3448,0.120540
1528.2085,0.120285
1530.0722,0.118877
1531.9359,0.120116
1533.7995,0.122215
1535.6632,0.118142
1537.5269,0.117124
1539.3905,0.123460
1541.2542,0.125817
1543.1179,0.122178
1544.9815,0.119121
1546.8452,0.115085
1548.7089,0.112742
1550.5725,0.110120
1552.4362,0.106561
1554.2999,0.103532
1556.1635,0.101361
1558.0272,0.106349
1559.8909,0.106989
1561.7546,0.098045
1563.6182,0.093743
1565.4819,0.091336
1567.3456,0.089718
1569.2092,0.089917
1571.0729,0.087331
1572.9366,0.083860
1574.8002,0.084811
1576.6639,0.087094
1578.5276,0.084493
1580.3912,0.082655
1582.2549,0.082664
1584.1186,0.083201
1585.9822,0.083919
1587.8459,0.084882
1589.7096,0.086337
1591.5733,0.088285
1593.4369,0.090805
1595.3006,0.093494
1597.1643,0.095737
1599.0279,0.098084
1600.8916,0.101315
1602.7553,0.104626
1604.6189,0.107623
1606.4826,0.111209
1608.3463,0.115257
1610.2099,0.118046
1612.0736,0.119535
1613.9373,0.121593
1615.8010,0.128042
1617.6646,0.132670
1619.5283,0.131176
1621.3920,0.132351
1623.2556,0.136363
1625.1193,0.137220
1626.9830,0.138060
1628.8466,0.138026
1630.7103,0.135581
1632.5740,0.134139
1634.4376,0.137385
1636.3013,0.138998
1638.1650,0.134058
1640.0286,0.129847
1641.8923,0.126742
1643.7560,0.124673
1645.6197,0.125117
1647.4833,0.122682
1649.3470,0.116981
1651.2107,0.116534
1653.0743,0.120395
1654.9380,0.113152
1656.8017,0.106371
1658.6653,0.102183
1660.5290,0.099161
1662.3927,0.096431
1664.2563,0.092035
1666.1200,0.087723
1667.9837,0.085473
1669.8474,0.082851
1671.7110,0.078240
1673.5747,0.074825
1675.4384,0.072083
1677.3020,0.067361
1679.1657,0.063095
1681.0294,0.059465
1682.8930,0.057734
1684.7567,0.055051
1686.6204,0.049742
1688.4840,0.045655
1690.3477,0.041646
1692.2114,0.037297
1694.0750,0.033979
1695.9387,0.030533
1697.8024,0.026782
1699.6661,0.024463
1701.5297,0.021389
1703.3934,0.018467
1705.2571,0.016637
1707.1207,0.014769
1708.9844,0.013120
1710.8481,0.011788
1712.7117,0.010908
1714.5754,0.010586
1716.4391,0.010673
1718.3027,0.010208
1720.1664,0.008947
1722.0301,0.008025
1723.8937,0.007644
1725.7574,0.007284
1727.6211,0.006901
1729.4848,0.006779
1731.3484,0.006888
1733.2121,0.007003
1735.0758,0.007264
1736.9394,0.006930
1738.8031,0.006656
1740.6668,0.006680
1742.5304,0.006483
1744.3941,0.006018
1746.2578,0.005761
1748.1214,0.005505
1749.9851,0.005167
1751.8488,0.004558
1753.7125,0.003608
1755.5761,0.002766
1757.4398,0.002499
1759.3035,0.002209
1761.1671,0.001980
1763.0308,0.001614
1764.8945,0.001121
1766.7581,0.000921
1768.6218,0.001017
1770.4855,0.001018
1772.3491,0.001360
1774.2128,0.001094
1776.0765,0.000505
1777.9401,0.000368
1779.8038,0.000503
1781.6675,0.000481
1783.5312,0.000274
1785.3948,0.000130
1787.2585,0.000057
1789.1222,0.000060
1790.9858,0.000168
1792.8495,0.000254
1794.7132,0.000031
1796.5768,-0.000166
1798.4405,0.000005
1800.3042,0.000038
1802.1678,-0.000201
1804.0315,-0.000435
1805.8952,-0.000689
1807.7589,-0.000828
1809.6225,-0.000614
1811.4862,-0.000450
1813.3499,-0.000695
1815.2135,-0.000879
1817.0772,-0.000927
1818.9409,-0.001138
1820.8045,-0.001041
1822.6682,-0.000741
1824.5319,-0.000700
1826.3955,-0.000908
1828.2592,-0.001015
1830.1229,-0.000824
1831.9865,-0.000763
1833.8502,-0.000927
1835.7139,-0.001016
1837.5776,-0.000984
1839.4412,-0.000947
1841.3049,-0.001000
1843.1686,-0.000592
1845.0322,-0.000267
1846.8959,-0.000718
1848.7596,-0.000756
1850.6232,-0.000671
1852.4869,-0.001112
1854.3506,-0.001320
1856.2142,-0.000956
1858.0779,-0.000497
1859.9416,-0.000603
1861.8052,-0.001010
1863.6689,-0.001075
1865.5326,-0.000892
1867.3963,-0.000647
1869.2599,-0.000453
1871.1236,-0.000655
1872.9873,-0.000830
1874.8509,-0.000865
1876.7146,-0.000893
1878.5783,-0.000692
1880.4419,-0.000356
1882.3056,-0.000400
1884.1693,-0.000553
1886.0329,-0.000731
1887.8966,-0.000959
1889.7603,-0.000947
1891.6240,-0.000838
1893.4876,-0.000874
1895.3513,-0.000857
1897.2150,-0.000313
1899.0786,-0.000173
1900.9423,-0.000229
1902.8060,-0.000151
1904.6696,-0.000792
1906.5333,-0.001013
1908.3970,-0.000543
1910.2606,-0.000180
1912.1243,0.000301
1913.9880,0.000492
1915.8516,0.000270
1917.7153,0.000107
1919.5790,0.000033
1921.4427,0.000120
1923.3063,-0.000093
1925.1700,-0.000487
1927.0337,-0.000204
1928.8973,0.000424
1930.7610,0.000508
1932.6247,-0.000056
1934.4883,-0.000470
1936.3520,-0.000010
1938.2157,0.000775
1940.0793,0.001284
1941.9430,0.001513
1943.8067,0.001381
1945.6704,0.001303
1947.5340,0.001191
1949.3977,0.000714
1951.2614,0.000289
1953.1250,0.000554
1954.9887,0.001418
1956.8524,0.001443
1958.7160,0.000863
1960.5797,0.000987
1962.4434,0.001135
1964.3070,0.001253
1966.1707,0.001623
1968.0344,0.001583
1969.8980,0.002414
1971.7617,0.003782
1973.6254,0.003982
1975.4891,0.003516
1977.3527,0.003418
1979.2164,0.003999
1981.0801,0.003964
1982.9437,0.003077
1984.8074,0.002680
1986.6711,0.003589
1988.5347,0.004242
1990.3984,0.003110
1992.2621,0.002121
1994.1257,0.001804
1995.9894,0.001678
1997.8531,0.002569
1999.7167,0.003071
2001.5804,0.002786
2003.4441,0.002877
2005.3078,0.002986
2007.1714,0.002904
2009.0351,0.003452
2010.8988,0.004189
2012.7624,0.004607
2014.6261,0.004711
2016.4898,0.004129
2018.3534,0.003780
2020.2171,0.004100
2022.0808,0.004745
2023.9444,0.004783
2025.8081,0.004064
2027.6718,0.004543
2029.5355,0.006309
2031.3991,0.006954
2033.2628,0.007073
2035.1265,0.007905
2036.9901,0.007548
2038.8538,0.007430
2040.7175,0.008553
2042.5811,0.008904
2044.4448,0.008661
2046.3085,0.009445
2048.1721,0.010542
2050.0358,0.010826
2051.8995,0.010681
2053.7631,0.010770
2055.6268,0.010701
2057.4905,0.010507
2059.3542,0.010518
2061.2178,0.010198
2063.0815,0.010048
2064.9452,0.010320
2066.8088,0.009972
2068.6725,0.009143
2070.5362,0.009002
2072.3998,0.008987
2074.2635,0.008184
2076.1272,0.008056
2077.9908,0.007963
2079.8545,0.007545
2081.7182,0.007309
2083.5819,0.007103
2085.4455,0.006387
2087.3092,0.005436
2089.1729,0.005230
2091.0365,0.005179
2092.9002,0.005382
2094.7639,0.005381
2096.6275,0.004623
2098.4912,0.004244
2100.3549,0.004479
2102.2185,0.005204
2104.0822,0.005080
2105.9459,0.004352
2107.8095,0.004774
2109.6732,0.005341
2111.5369,0.005239
2113.4006,0.005233
2115.2642,0.005136
2117.1279,0.004482
2118.9916,0.003898
2120.8552,0.004030
2122.7189,0.004009
2124.5826,0.003351
2126.4462,0.003238
2128.3099,0.003608
2130.1736,0.003186
2132.0372,0.003020
2133.9009,0.003799
2135.7646,0.004303
2137.6282,0.004479
2139.4919,0.004649
2141.3556,0.004654
2143.2193,0.004195
2145.0829,0.003240
2146.9466,0.002247
2148.8103,0.002692
2150.6739,0.003755
2152.5376,0.003989
2154.4013,0.004677
2156.2649,0.004662
2158.1286,0.005073
2159.9923,0.007831
2161.8559,0.009290
2163.7196,0.008721
2165.5833,0.007601
2167.4470,0.006691
2169.3106,0.006378
2171.1743,0.007184
2173.0380,0.007679
2174.9016,0.007364
2176.7653,0.007277
2178.6290,0.006645
2180.4926,0.006139
2182.3563,0.005631
2184.2200,0.005873
2186.0836,0.006151
2187.9473,0.005860
2189.8110,0.006061
2191.6746,0.006743
2193.5383,0.006876
2195.4020,0.006191
2197.2657,0.005728
2199.1293,0.006149
2200.9930,0.006216
2202.8567,0.005933
2204.7203,0.005753
2206.5840,0.005728
2208.4477,0.005460
2210.3113,0.005371
2212.1750,0.005673
2214.0387,0.006339
2215.9023,0.006455
2217.7660,0.005873
2219.6297,0.005326
2221.4934,0.005334
2223.3570,0.005385
2225.2207,0.005924
2227.0844,0.005931
2228.9480,0.005380
2230.8117,0.004959
2232.6754,0.005266
2234.5390,0.005678
2236.4027,0.005469
2238.2664,0.004998
2240.1300,0.005381
2241.9937,0.005764
2243.8574,0.005688
2245.7210,0.006070
2247.5847,0.006431
2249.4484,0.005538
2251.3121,0.004847
2253.1757,0.004730
2255.0394,0.004847
2256.9031,0.005013
2258.7667,0.004639
2260.6304,0.004860
2262.4941,0.004923
2264.3577,0.004369
2266.2214,0.004542
2268.0851,0.005185
2269.9487,0.005857
2271.8124,0.005518
2273.6761,0.005046
2275.5397,0.005155
2277.4034,0.005491
2279.2671,0.005424
2281.1308,0.005285
2282.9944,0.005397
2284.8581,0.005251
2286.7218,0.004992
2288.5854,0.004800
2290.4491,0.004507
2292.3128,0.004346
2294.1764,0.004269
2296.0401,0.004063
2297.9038,0.004040
2299.7674,0.004193
2301.6311,0.003982
2303.4948,0.003817
2305.3585,0.004031
2307.2221,0.004323
2309.0858,0.004292
2310.9495,0.004178
2312.8131,0.004035
2314.6768,0.003872
2316.5405,0.003792
2318.4041,0.003838
2320.2678,0.004232
2322.1315,0.004767
2323.9951,0.004978
2325.8588,0.004142
2327.7225,0.003135
2329.5861,0.002998
2331.4498,0.003319
2333.3135,0.003397
2335.1772,0.003106
2337.0408,0.003193
2338.9045,0.003642
2340.7682,0.004152
2342.6318,0.004229
2344.4955,0.003965
2346.3592,0.003624
2348.2228,0.003083
2350.0865,0.002231
2351.9502,0.001886
2353.8138,0.002029
2355.6775,0.002100
2357.5412,0.002529
2359.4049,0.003445
2361.2685,0.004249
2363.1322,0.004642
2364.9959,0.004789
2366.8595,0.004858
2368.7232,0.004893
2370.5869,0.004660
2372.4505,0.004337
2374.3142,0.004603
2376.1779,0.004918
2378.0415,0.004369
2379.9052,0.003706
2381.7689,0.003375
2383.6325,0.003179
2385.4962,0.003189
2387.3599,0.003204
2389.2236,0.003023
2391.0872,0.002978
2392.9509,0.003269
2394.8146,0.003511
2396.6782,0.003415
2398.5419,0.003146
2400.4056,0.003098
2402.2692,0.003064
2404.1329,0.003006
2405.9966,0.003286
2407.8602,0.003664
2409.7239,0.003775
2411.5876,0.003710
2413.4512,0.003659
2415.3149,0.003759
2417.1786,0.003746
2419.0423,0.003776
2420.9059,0.003710
2422.7696,0.003716
2424.6333,0.004188
2426.4969,0.004277
2428.3606,0.003967
2430.2243,0.004080
2432.0879,0.004261
2433.9516,0.004259
2435.8153,0.004345
2437.6789,0.004388
2439.5426,0.004468
2441.4063,0.004631
2443.2700,0.004755
2445.1336,0.004779
2446.9973,0.004736
2448.8610,0.004510
2450.7246,0.004335
2452.5883,0.004559
2454.4520,0.004721
2456.3156,0.004936
2458.1793,0.005085
2460.0430,0.004740
2461.9066,0.004575
2463.7703,0.005131
2465.6340,0.005318
2467.4976,0.004952
2469.3613,0.004698
2471.2250,0.005081
2473.0887,0.005290
2474.9523,0.005064
2476.8160,0.005039
2478.6797,0.005261
2480.5433,0.005065
2482.4070,0.005028
2484.2707,0.005121
2486.1343,0.005153
2487.9980,0.005267
2489.8617,0.005562
2491.7253,0.005647
2493.5890,0.005418
2495.4527,0.005432
2497.3164,0.005803
2499.1800,0.006113
2501.0437,0.006181
2502.9074,0.005932
2504.7710,0.005606
2506.6347,0.005668
2508.4984,0.006198
2510.3620,0.006359
2512.2257,0.006153
2514.0894,0.006040
2515.9530,0.006107
2517.8167,0.006162
2519.6804,0.006476
2521.5440,0.006529
2523.4077,0.006526
2525.2714,0.006754
2527.1351,0.006654
2528.9987,0.006507
2530.8624,0.006657
2532.7261,0.006456
2534.5897,0.006633
2536.4534,0.006689
2538.3171,0.006745
2540.1807,0.006712
2542.0444,0.006730
2543.9081,0.006960
2545.7717,0.006899
2547.6354,0.006712
2549.4991,0.007020
2551.3627,0.007265
2553.2264,0.007389
2555.0901,0.007384
2556.9538,0.007170
2558.8174,0.007036
2560.6811,0.007267
2562.5448,0.007290
2564.4084,0.007311
2566.2721,0.007612
2568.1358,0.007815
2569.9994,0.007966
2571.8631,0.008122
2573.7268,0.008082
2575.5904,0.008107
2577.4541,0.007942
2579.3178,0.007922
2581.1815,0.008072
2583.0451,0.008051
2584.9088,0.008062
2586.7725,0.008219
2588.6361,0.008555
2590.4998,0.008675
2592.3635,0.008563
2594.2271,0.008623
2596.0908,0.008824
2597.9545,0.008901
2599.8181,0.009093
2601.6818,0.009430
2603.5455,0.009340
2605.4091,0.009243
2607.2728,0.009294
2609.1365,0.009497
2611.0002,0.009699
2612.8638,0.009810
2614.7275,0.009769
2616.5912,0.009743
2618.4548,0.009861
2620.3185,0.010100
2622.1822,0.010144
2624.0458,0.010178
2625.9095,0.010308
2627.7732,0.010417
2629.6368,0.010654
2631.5005,0.010835
2633.3642,0.010852
2635.2279,0.010715
2637.0915,0.010736
2638.9552,0.010876
2640.8189,0.011013
2642.6825,0.011283
2644.5462,0.011561
2646.4099,0.011567
2648.2735,0.011473
2650.1372,0.011560
2652.0009,0.011579
2653.8645,0.011816
2655.7282,0.011746
2657.5919,0.011561
2659.4555,0.011597
2661.3192,0.011589
2663.1829,0.011629
2665.0466,0.011549
2666.9102,0.011527
2668.7739,0.011694
2670.6376,0.011653
2672.5012,0.011734
2674.3649,0.011853
2676.2286,0.011889
2678.0922,0.012060
2679.9559,0.012185
2681.8196,0.012208
2683.6832,0.012237
2685.5469,0.012519
2687.4106,0.012627
2689.2742,0.012438
2691.1379,0.012542
2693.0016,0.012895
2694.8653,0.013043
2696.7289,0.013111
2698.5926,0.012989
2700.4563,0.012929
2702.3199,0.013102
2704.1836,0.013360
2706.0473,0.013657
2707.9109,0.013810
2709.7746,0.013810
2711.6383,0.013904
2713.5019,0.014127
2715.3656,0.014220
2717.2293,0.014257
2719.0930,0.014368
2720.9566,0.014741
2722.8203,0.014935
2724.6840,0.014920
2726.5476,0.015110
2728.4113,0.015289
2730.2750,0.015421
2732.1386,0.015589
2734.0023,0.015597
2735.8660,0.015756
2737.7296,0.016058
2739.5933,0.016224
2741.4570,0.016229
2743.3206,0.016430
2745.1843,0.016550
2747.0480,0.016685
2748.9117,0.016894
2750.7753,0.016981
2752.6390,0.017263
2754.5027,0.017524
2756.3663,0.017536
2758.2300,0.017593
2760.0937,0.017812
2761.9573,0.018130
2763.8210,0.018333
2765.6847,0.018559
2767.5483,0.018813
2769.4120,0.018993
2771.2757,0.019176
2773.1394,0.019198
2775.0030,0.019345
2776.8667,0.019570
2778.7304,0.019796
2780.5940,0.019992
2782.4577,0.020253
2784.3214,0.020487
2786.1850,0.020649
2788.0487,0.020848
2789.9124,0.021017
2791.7760,0.021241
2793.6397,0.021439
2795.5034,0.021630
2797.3670,0.021867
2799.2307,0.022067
2801.0944,0.022321
2802.9581,0.022532
2804.8217,0.022777
2806.6854,0.023032
2808.5491,0.023255
2810.4127,0.023405
2812.2764,0.023674
2814.1401,0.024074
2816.0037,0.024199
2817.8674,0.024298
2819.7311,0.024589
2821.5947,0.024850
2823.4584,0.025179
2825.3221,0.025734
2827.1857,0.026097
2829.0494,0.026397
2830.9131,0.026683
2832.7768,0.027054
2834.6404,0.027535
2836.5041,0.027845
2838.3678,0.028285
2840.2314,0.029033
2842.0951,0.029794
2843.9588,0.030659
2845.8224,0.031687
2847.6861,0.032767
2849.5498,0.033400
2851.4134,0.033778
2853.2771,0.034158
2855.1408,0.034305
2857.0045,0.034264
2858.8681,0.034226
2860.7318,0.034208
2862.5955,0.034346
2864.4591,0.034826
2866.3228,0.035421
2868.1865,0.035799
2870.0501,0.036064
2871.9138,0.036370
2873.7775,0.036627
2875.6411,0.036658
2877.5048,0.036793
2879.3685,0.036890
2881.2321,0.037015
2883.0958,0.037036
2884.9595,0.037081
2886.8232,0.037212
2888.6868,0.037490
2890.5505,0.037740
2892.4142,0.037724
2894.2778,0.037792
2896.1415,0.038178
2898.0052,0.038469
2899.8688,0.038769
2901.7325,0.039037
2903.5962,0.039448
2905.4598,0.039964
2907.3235,0.040516
2909.1872,0.041094
2911.0509,0.041860
2912.9145,0.042560
2914.7782,0.043107
2916.6419,0.043582
2918.5055,0.044449
2920.3692,0.045075
2922.2329,0.045118
2924.0965,0.045053
2925.9602,0.045095
2927.8239,0.045009
2929.6875,0.045046
2931.5512,0.044776
2933.4149,0.044301
2935.2785,0.043937
2937.1422,0.043548
2939.0059,0.042961
2940.8696,0.042501
2942.7332,0.042048
2944.5969,0.041886
2946.4606,0.041863
2948.3242,0.041802
2950.1879,0.041846
2952.0516,0.042027
2953.9152,0.041997
2955.7789,0.041959
2957.6426,0.041988
2959.5062,0.042012
2961.3699,0.041780
2963.2336,0.041307
2965.0972,0.040764
2966.9609,0.040583
2968.8246,0.040239
2970.6883,0.039574
2972.5519,0.039163
2974.4156,0.038807
2976.2793,0.038357
2978.1429,0.037970
2980.0066,0.037355
2981.8703,0.036782
2983.7339,0.036570
2985.5976,0.036421
2987.4613,0.036059
2989.3249,0.035982
2991.1886,0.035949
2993.0523,0.035862
2994.9160,0.035815
2996.7796,0.035614
2998.6433,0.035283
3000.5070,0.035373
3002.3706,0.035869
3004.2343,0.036079
3006.0980,0.036175
3007.9616,0.036536
3009.8253,0.036866
3011.6890,0.037099
3013.5526,0.037157
3015.4163,0.037201
3017.2800,0.037589
3019.1436,0.038117
3021.0073,0.038274
3022.8710,0.038650
3024.7347,0.038936
3026.5983,0.039397
3028.4620,0.039978
3030.3257,0.040270
3032.1893,0.040723
3034.0530,0.041310
3035.9167,0.041561
3037.7803,0.041877
3039.6440,0.042340
3041.5077,0.042833
3043.3713,0.043091
3045.2350,0.043325
3047.0987,0.043724
3048.9624,0.044186
3050.8260,0.044584
3052.6897,0.045007
3054.5534,0.045238
3056.4170,0.045163
3058.2807,0.045545
3060.1444,0.046219
3062.0080,0.046584
3063.8717,0.046877
3065.7354,0.047006
3067.5990,0.046929
3069.4627,0.047080
3071.3264,0.047528
3073.1900,0.047828
3075.0537,0.048122
3076.9174,0.048189
3078.7811,0.048229
3080.6447,0.048446
3082.5084,0.048479
3084.3721,0.048383
3086.2357,0.048768
3088.0994,0.048944
3089.9631,0.048719
3091.8267,0.048461
3093.6904,0.048589
3095.5541,0.048834
3097.4177,0.048961
3099.2814,0.049216
3101.1451,0.049355
3103.0087,0.049306
3104.8724,0.049475
3106.7361,0.049496
3108.5998,0.049611
3110.4634,0.049897
3112.3271,0.050151
3114.1908,0.050383
3116.0544,0.050560
3117.9181,0.050818
3119.7818,0.051251
3121.6454,0.051591
3123.5091,0.051976
3125.3728,0.052107
3127.2364,0.052212
3129.1001,0.052453
3130.9638,0.052885
3132.8275,0.053504
3134.6911,0.054017
3136.5548,0.054360
3138.4185,0.054823
3140.2821,0.055339
3142.1458,0.055643
3144.0095,0.055843
3145.8731,0.056153
3147.7368,0.056685
3149.6005,0.057307
3151.4641,0.057841
3153.3278,0.058194
3155.1915,0.058758
3157.0551,0.059479
3158.9188,0.059850
3160.7825,0.060264
3162.6462,0.060606
3164.5098,0.060739
3166.3735,0.061193
3168.2372,0.062100
3170.1008,0.062729
3171.9645,0.063086
3173.8282,0.063289
3175.6918,0.063477
3177.5555,0.063727
3179.4192,0.064141
3181.2828,0.064735
3183.1465,0.065495
3185.0102,0.065948
3186.8739,0.066271
3188.7375,0.066676
3190.6012,0.066959
3192.4649,0.067066
3194.3285,0.067280
3196.1922,0.067902
3198.0559,0.068498
3199.9195,0.068652
3201.7832,0.068706
3203.6469,0.068986
3205.5105,0.069167
3207.3742,0.068889
3209.2379,0.069298
3211.1015,0.069964
3212.9652,0.069942
3214.8289,0.069943
3216.6926,0.070127
3218.5562,0.070135
3220.4199,0.070586
3222.2836,0.070974
3224.1472,0.070793
3226.0109,0.070971
3227.8746,0.071569
3229.7382,0.071884
3231.6019,0.071957
3233.4656,0.072141
3235.3292,0.072436
3237.1929,0.072641
3239.0566,0.072687
3240.9202,0.072667
3242.7839,0.072624
3244.6476,0.072979
3246.5113,0.073806
3248.3749,0.074258
3250.2386,0.074311
3252.1023,0.074082
3253.9659,0.074188
3255.8296,0.074741
3257.6933,0.074733
3259.5569,0.074777
3261.4206,0.075209
3263.2843,0.075393
3265.1479,0.075484
3267.0116,0.075520
3268.8753,0.075683
3270.7390,0.075746
3272.6026,0.075250
3274.4663,0.074789
3276.3300,0.074987
3278.1936,0.074928
3280.0573,0.074382
3281.9210,0.074341
3283.7846,0.074612
3285.6483,0.074701
3287.5120,0.074626
3289.3756,0.074028
3291.2393,0.073429
3293.1030,0.073570
3294.9666,0.073521
3296.8303,0.072908
3298.6940,0.072148
3300.5577,0.071633
3302.4213,0.071424
3304.2850,0.071323
3306.1487,0.071229
3308.0123,0.070487
3309.8760,0.069744
3311.7397,0.069799
3313.6033,0.069728
3315.4670,0.069247
3317.3307,0.068917
3319.1943,0.068862
3321.0580,0.068420
3322.9217,0.068032
3324.7854,0.067718
3326.6490,0.066929
3328.5127,0.066428
3330.3764,0.066881
3332.2400,0.067489
3334.1037,0.066954
3335.9674,0.066378
3337.8310,0.066556
3339.6947,0.066028
3341.5584,0.065400
3343.4220,0.065355
3345.2857,0.065430
3347.1494,0.065030
3349.0130,0.064555
3350.8767,0.064308
3352.7404,0.064317
3354.6041,0.064233
3356.4677,0.063838
3358.3314,0.063475
3360.1951,0.063342
3362.0587,0.063539
3363.9224,0.063055
3365.7861,0.062119
3367.6497,0.061945
3369.5134,0.061779
3371.3771,0.061524
3373.2407,0.061495
3375.1044,0.061432
3376.9681,0.060782
3378.8317,0.060479
3380.6954,0.060579
3382.5591,0.060411
3384.4228,0.059974
3386.2864,0.059511
3388.1501,0.059139
3390.0138,0.059182
3391.8774,0.058779
3393.7411,0.058179
3395.6048,0.058152
3397.4684,0.058005
3399.3321,0.057602
3401.1958,0.057084
3403.0594,0.056793
3404.9231,0.056991
3406.7868,0.056448
3408.6505,0.056043
3410.5141,0.056181
3412.3778,0.056109
3414.2415,0.055677
3416.1051,0.055269
3417.9688,0.054803
3419.8325,0.054407
3421.6961,0.054364
3423.5598,0.054234
3425.4235,0.053387
3427.2871,0.052770
3429.1508,0.052276
3431.0145,0.052380
3432.8781,0.052202
3434.7418,0.051719
3436.6055,0.051636
3438.4692,0.051252
3440.3328,0.050522
3442.1965,0.050263
3444.0602,0.049828
3445.9238,0.049853
3447.7875,0.049641
3449.6512,0.048803
3451.5148,0.048187
3453.3785,0.047871
3455.2422,0.047152
3457.1058,0.046802
3458.9695,0.047046
3460.8332,0.046449
3462.6969,0.045268
3464.5605,0.045265
3466.4242,0.045141
3468.2879,0.044579
3470.1515,0.044235
3472.0152,0.044173
3473.8789,0.043655
3475.7425,0.043534
3477.6062,0.043202
3479.4699,0.042577
3481.3335,0.042598
3483.1972,0.042184
3485.0609,0.041439
3486.9245,0.040740
3488.7882,0.039726
3490.6519,0.038527
3492.5156,0.038192
3494.3792,0.038317
3496.2429,0.037859
3498.1066,0.037229
3499.9702,0.036890
3501.8339,0.036715
3503.6976,0.036475
3505.5612,0.035514
3507.4249,0.035232
3509.2886,0.036085
3511.1522,0.035822
3513.0159,0.034597
3514.8796,0.033624
3516.7432,0.032873
3518.6069,0.032099
3520.4706,0.032146
3522.3343,0.032135
3524.1979,0.031670
3526.0616,0.031087
3527.9253,0.030596
3529.7889,0.030154
3531.6526,0.029406
3533.5163,0.028499
3535.3799,0.028106
3537.2436,0.028283
3539.1073,0.027825
3540.9709,0.027023
3542.8346,0.026277
3544.6983,0.025448
3546.5620,0.025821
3548.4256,0.025880
3550.2893,0.024603
3552.1530,0.024114
3554.0166,0.024324
3555.8803,0.023839
3557.7440,0.022956
3559.6076,0.022083
3561.4713,0.021282
3563.3350,0.020834
3565.1986,0.020991
3567.0623,0.020816
3568.9260,0.020012
3570.7896,0.019452
3572.6533,0.018807
3574.5170,0.018070
3576.3807,0.017812
3578.2443,0.017529
3580.1080,0.017024
3581.9717,0.016478
3583.8353,0.016037
3585.6990,0.015532
3587.5627,0.015006
3589.4263,0.014249
3591.2900,0.013458
3593.1537,0.013475
3595.0173,0.013470
3596.8810,0.013111
3598.7447,0.012561
3600.6084,0.011589
3602.4720,0.010746
3604.3357,0.010245
3606.1994,0.009614
3608.0630,0.008890
3609.9267,0.008635
3611.7904,0.008405
3613.6540,0.008432
3615.5177,0.008511
3617.3814,0.007787
3619.2450,0.007240
3621.1087,0.006685
3622.9724,0.005702
3624.8360,0.005374
3626.6997,0.004966
3628.5634,0.004282
3630.4271,0.004618
3632.2907,0.004472
3634.1544,0.003573
3636.0181,0.002913
3637.8817,0.002513
3639.7454,0.002112
3641.6091,0.001489
3643.4727,0.001030
3645.3364,0.000715
3647.2001,0.000054
3649.0637,-0.000400
3650.9274,-0.000595
3652.7911,-0.000918
3654.6547,-0.001355
3656.5184,-0.001643
3658.3821,-0.001832
3660.2458,-0.002600
3662.1094,-0.003485
3663.9731,-0.003532
3665.8368,-0.003488
3667.7004,-0.003746
3669.5641,-0.004178
3671.4278,-0.004376
3673.2914,-0.005059
3675.1551,-0.005376
3677.0188,-0.004699
3678.8824,-0.005181
3680.7461,-0.006349
3682.6098,-0.006344
3684.4735,-0.006432
3686.3371,-0.006715
3688.2008,-0.006841
3690.0645,-0.006319
3691.9281,-0.006403
3693.7918,-0.007116
3695.6555,-0.007267
3697.5191,-0.007278
3699.3828,-0.007426
3701.2465,-0.007410
3703.1101,-0.007330
3704.9738,-0.007507
3706.8375,-0.007795
3708.7011,-0.007601
3710.5648,-0.007684
3712.4285,-0.007746
3714.2922,-0.007361
3716.1558,-0.007710
3718.0195,-0.008174
3719.8832,-0.007892
3721.7468,-0.008026
3723.6105,-0.008318
3725.4742,-0.008354
3727.3378,-0.008275
3729.2015,-0.007953
3731.0652,-0.007807
3732.9288,-0.008047
3734.7925,-0.007735
3736.6562,-0.007761
3738.5199,-0.007476
3740.3835,-0.007621
3742.2472,-0.008150
3744.1109,-0.008450
3745.9745,-0.007890
3747.8382,-0.007874
3749.7019,-0.008373
3751.5655,-0.008631
3753.4292,-0.008630
3755.2929,-0.008106
3757.1565,-0.007727
3759.0202,-0.007661
3760.8839,-0.007404
3762.7475,-0.007456
3764.6112,-0.008118
3766.4749,-0.008424
3768.3386,-0.008375
3770.2022,-0.008461
3772.0659,-0.007830
3773.9296,-0.007735
3775.7932,-0.008076
3777.6569,-0.008186
3779.5206,-0.008151
3781.3842,-0.007987
3783.2479,-0.007848
3785.1116,-0.008071
3786.9752,-0.008425
3788.8389,-0.008713
3790.7026,-0.008380
3792.5662,-0.007719
3794.4299,-0.007428
3796.2936,-0.008107
3798.1573,-0.008425
3800.0209,-0.008571
3801.8846,-0.008601
3803.7483,-0.007662
3805.6119,-0.008057
3807.4756,-0.008759
3809.3393,-0.008231
3811.2029,-0.008243
3813.0666,-0.008370
3814.9303,-0.008522
3816.7939,-0.008352
3818.6576,-0.007929
3820.5213,-0.008148
3822.3850,-0.007974
3824.2486,-0.007634
3826.1123,-0.007931
3827.9760,-0.007804
3829.8396,-0.007722
3831.7033,-0.008128
3833.5670,-0.008279
3835.4306,-0.008200
3837.2943,-0.008433
3839.1580,-0.008134
3841.0216,-0.007546
3842.8853,-0.007798
3844.7490,-0.008217
3846.6126,-0.008038
3848.4763,-0.008235
3850.3400,-0.008644
3852.2037,-0.008733
3854.0673,-0.008712
3855.9310,-0.008224
3857.7947,-0.007953
3859.6583,-0.007923
3861.5220,-0.007840
3863.3857,-0.008178
3865.2493,-0.007953
3867.1130,-0.007668
3868.9767,-0.008124
3870.8403,-0.008080
3872.7040,-0.007473
3874.5677,-0.007978
3876.4314,-0.007951
3878.2950,-0.007934
3880.1587,-0.008235
3882.0224,-0.007802
3883.8860,-0.007572
3885.7497,-0.008067
3887.6134,-0.007675
3889.4770,-0.007575
3891.3407,-0.008123
3893.2044,-0.008119
3895.0680,-0.007956
3896.9317,-0.008119
3898.7954,-0.007990
3900.6590,-0.007676
3902.5227,-0.007364
3904.3864,-0.007451
3906.2501,-0.007358
3908.1137,-0.007510
3909.9774,-0.007399
3911.8411,-0.007534
3913.7047,-0.008203
3915.5684,-0.008129
3917.4321,-0.007724
3919.2957,-0.007554
3921.1594,-0.007694
3923.0231,-0.007816
3924.8867,-0.007648
3926.7504,-0.007619
3928.6141,-0.007718
3930.4777,-0.007373
3932.3414,-0.007394
3934.2051,-0.007591
3936.0688,-0.007233
3937.9324,-0.007310
3939.7961,-0.007390
3941.6598,-0.007543
3943.5234,-0.007483
3945.3871,-0.007290
3947.2508,-0.007337
3949.1144,-0.007568
3950.9781,-0.007406
3952.8418,-0.007465
3954.7054,-0.007419
3956.5691,-0.007155
3958.4328,-0.006927
3960.2965,-0.007472
3962.1601,-0.007603
3964.0238,-0.007333
3965.8875,-0.007143
3967.7511,-0.007123
3969.6148,-0.007368
3971.4785,-0.007265
3973.3421,-0.006827
3975.2058,-0.007194
3977.0695,-0.007583
3978.9331,-0.007154
3980.7968,-0.006970
3982.6605,-0.007375
3984.5241,-0.007369
3986.3878,-0.007318
3988.2515,-0.007359
3990.1152,-0.007521
3991.9788,-0.007327
3993.8425,-0.006994
3995.7062,-0.007069
3997.5698,-0.007418
3999.4335,-0.007566
