Wavenumber,Intensity
650.4205,0.029111
652.2841,0.029973
654.1478,0.030885
656.0115,0.031092
657.8751,0.030811
659.7388,0.028977
661.6025,0.028621
663.4661,0.030096
665.3298,0.032235
667.1935,0.032341
669.0571,0.027665
670.9208,0.027107
672.7845,0.027572
674.6481,0.027459
676.5118,0.027539
678.3755,0.028133
680.2392,0.027385
682.1028,0.025883
683.9665,0.027411
685.8302,0.028627
687.6938,0.027168
689.5575,0.026251
691.4212,0.026273
693.2848,0.026413
695.1485,0.026405
697.0122,0.026113
698.8758,0.025338
700.7395,0.024844
702.6032,0.025058
704.4669,0.024875
706.3305,0.024544
708.1942,0.024672
710.0579,0.024285
711.9215,0.023649
713.7852,0.023590
715.6489,0.023610
717.5125,0.023696
719.3762,0.023146
721.2399,0.022494
723.1035,0.022299
724.9672,0.021958
726.8309,0.021740
728.6945,0.021800
730.5582,0.021985
732.4219,0.021698
734.2856,0.020952
736.1492,0.020715
738.0129,0.021046
739.8766,0.021068
741.7402,0.020656
743.6039,0.020431
745.4676,0.020426
747.3312,0.020031
749.1949,0.019491
751.0586,0.019389
752.9222,0.019807
754.7859,0.020192
756.6496,0.020297
758.5132,0.020176
760.3769,0.019734
762.2406,0.019337
764.1043,0.019179
765.9679,0.019089
767.8316,0.019175
769.6953,0.019249
771.5589,0.019336
773.4226,0.019154
775.2863,0.018585
777.1499,0.018299
779.0136,0.018205
780.8773,0.018132
782.7409,0.018270
784.6046,0.018430
786.4683,0.017961
788.3320,0.017349
790.1956,0.017241
792.0593,0.017206
793.9230,0.017086
795.7866,0.017184
797.6503,0.017084
799.5140,0.016949
801.3776,0.017236
803.2413,0.017449
805.1050,0.017695
806.9686,0.017518
808.8323,0.017124
810.6960,0.017116
812.5596,0.016979
814.4233,0.016945
816.2870,0.016992
818.1507,0.017022
820.0143,0.017125
821.8780,0.016836
823.7417,0.016103
825.6053,0.015322
827.4690,0.015120
829.3327,0.015204
831.1963,0.015214
833.0600,0.015223
834.9237,0.015024
836.7873,0.014905
838.6510,0.014714
840.5147,0.014384
842.3784,0.014171
844.2420,0.014084
846.1057,0.014262
847.9694,0.014415
849.8330,0.014364
851.6967,0.014177
853.5604,0.013973
855.4240,0.013998
857.2877,0.014063
859.1514,0.014235
861.0150,0.014438
862.8787,0.014544
864.7424,0.014696
866.6060,0.014788
868.4697,0.014989
870.3334,0.015356
872.1971,0.015325
874.0607,0.015112
875.9244,0.015008
877.7881,0.015019
879.6517,0.015147
881.5154,0.015041
883.3791,0.014712
885.2427,0.014562
887.1064,0.014576
888.9701,0.014529
890.8337,0.014610
892.6974,0.014634
894.5611,0.014540
896.4247,0.014479
898.2884,0.014489
900.1521,0.014533
902.0158,0.014489
903.8794,0.014440
905.7431,0.014475
907.6068,0.014601
909.4704,0.014737
911.3341,0.014836
913.1978,0.014984
915.0614,0.015121
916.9251,0.015243
918.7888,0.015415
920.6524,0.015533
922.5161,0.015584
924.3798,0.015658
926.2435,0.015718
928.1071,0.015765
929.9708,0.015862
931.8345,0.016028
933.6981,0.016240
935.5618,0.016485
937.4255,0.016748
939.2891,0.017160
941.1528,0.017686
943.0165,0.018181
944.8801,0.018574
946.7438,0.018937
948.6075,0.019209
950.4711,0.019444
952.3348,0.019861
954.1985,0.020310
956.0622,0.020749
957.9258,0.021311
959.7895,0.021985
961.6532,0.022806
963.5168,0.023636
965.3805,0.024261
967.2442,0.024662
969.1078,0.025007
970.9715,0.025192
972.8352,0.025155
974.6988,0.025196
976.5625,0.025366
978.4262,0.025626
980.2899,0.026073
982.1535,0.026542
984.0172,0.027058
985.8809,0.027655
987.7445,0.028174
989.6082,0.028688
991.4719,0.029377
993.3355,0.030107
995.1992,0.030802
997.0629,0.031538
998.9265,0.032246
1000.7902,0.032828
1002.6539,0.033320
1004.5175,0.033943
1006.3812,0.034719
1008.2449,0.035601
1010.1086,0.036679
1011.9722,0.037665
1013.8359,0.038557
1015.6996,0.039380
1017.5632,0.040074
1019.4269,0.040606
1021.2906,0.040900
1023.1542,0.040984
1025.0179,0.041148
1026.8816,0.041415
1028.7452,0.041608
1030.6089,0.041695
1032.4726,0.041715
1034.3362,0.041630
1036.1999,0.041416
1038.0636,0.041093
1039.9273,0.040869
1041.7909,0.040615
1043.6546,0.040322
1045.5183,0.040108
1047.3819,0.039957
1049.2456,0.039780
1051.1093,0.039592
1052.9729,0.039473
1054.8366,0.039362
1056.7003,0.039317
1058.5639,0.039314
1060.4276,0.039213
1062.2913,0.039112
1064.1550,0.039085
1066.0186,0.039012
1067.8823,0.038877
1069.7460,0.038744
1071.6096,0.038623
1073.4733,0.038310
1075.3370,0.037847
1077.2006,0.037335
1079.0643,0.036633
1080.9280,0.035721
1082.7916,0.034709
1084.6553,0.033661
1086.5190,0.032532
1088.3826,0.031466
1090.2463,0.030546
1092.1100,0.029786
1093.9737,0.029110
1095.8373,0.028457
1097.7010,0.027822
1099.5647,0.027266
1101.4283,0.026872
1103.2920,0.026521
1105.1557,0.026102
1107.0193,0.025729
1108.8830,0.025514
1110.7467,0.025402
1112.6103,0.025211
1114.4740,0.024955
1116.3377,0.024608
1118.2014,0.024228
1120.0650,0.023797
1121.9287,0.023277
1123.7924,0.022838
1125.6560,0.022434
1127.5197,0.021904
1129.3834,0.021367
1131.2470,0.020856
1133.1107,0.020207
1134.9744,0.019560
1136.8380,0.018976
1138.7017,0.018332
1140.5654,0.017787
1142.4290,0.017346
1144.2927,0.016971
1146.1564,0.016762
1148.0201,0.016727
1149.8837,0.016726
1151.7474,0.016659
1153.6111,0.016610
1155.4747,0.016502
1157.3384,0.016302
1159.2021,0.016097
1161.0657,0.015919
1162.9294,0.015693
1164.7931,0.015321
1166.6567,0.014866
1168.5204,0.014333
1170.3841,0.013677
1172.2477,0.012848
1174.1114,0.011994
1175.9751,0.011164
1177.8388,0.010401
1179.7024,0.009809
1181.5661,0.009416
1183.4298,0.009231
1185.2934,0.009158
1187.1571,0.009153
1189.0208,0.009221
1190.8844,0.009318
1192.7481,0.009497
1194.6118,0.009679
1196.4754,0.010008
1198.3391,0.010402
1200.2028,0.010684
1202.0665,0.011025
1203.9301,0.011435
1205.7938,0.011721
1207.6575,0.011897
1209.5211,0.012048
1211.3848,0.012203
1213.2485,0.012380
1215.1121,0.012632
1216.9758,0.012869
1218.8395,0.013168
1220.7031,0.013619
1222.5668,0.013988
1224.4305,0.014295
1226.2941,0.014615
1228.1578,0.014899
1230.0215,0.015183
1231.8852,0.015366
1233.7488,0.015454
1235.6125,0.015515
1237.4762,0.015565
1239.3398,0.015564
1241.2035,0.015430
1243.0672,0.015245
1244.9308,0.015080
1246.7945,0.014867
1248.6582,0.014618
1250.5218,0.014289
1252.3855,0.014005
1254.2492,0.013767
1256.1129,0.013445
1257.9765,0.013110
1259.8402,0.012920
1261.7039,0.012797
1263.5675,0.012610
1265.4312,0.012497
1267.2949,0.012427
1269.1585,0.012367
1271.0222,0.012323
1272.8859,0.012256
1274.7495,0.012151
1276.6132,0.012115
1278.4769,0.012066
1280.3405,0.012021
1282.2042,0.011954
1284.0679,0.011948
1285.9316,0.012079
1287.7952,0.012097
1289.6589,0.012103
1291.5226,0.012131
1293.3862,0.012272
1295.2499,0.012431
1297.1136,0.012549
1298.9772,0.012757
1300.8409,0.012909
1302.7046,0.013065
1304.5682,0.013217
1306.4319,0.013398
1308.2956,0.013554
1310.1592,0.013607
1312.0229,0.013764
1313.8866,0.013853
1315.7503,0.013795
1317.6139,0.013738
1319.4776,0.013753
1321.3413,0.013638
1323.2049,0.013406
1325.0686,0.013170
1326.9323,0.013094
1328.7959,0.012951
1330.6596,0.012911
1332.5233,0.012941
1334.3869,0.012833
1336.2506,0.012779
1338.1143,0.012826
1339.9780,0.012910
1341.8416,0.013004
1343.7053,0.013026
1345.5690,0.013038
1347.4326,0.012875
1349.2963,0.012777
1351.1600,0.012838
1353.0236,0.012837
1354.8873,0.012857
1356.7510,0.013020
1358.6146,0.013097
1360.4783,0.013146
1362.3420,0.013539
1364.2056,0.014117
1366.0693,0.014464
1367.9330,0.014790
1369.7967,0.015276
1371.6603,0.015731
1373.5240,0.016121
1375.3877,0.016473
1377.2513,0.016686
1379.1150,0.016928
1380.9787,0.017044
1382.8423,0.016999
1384.7060,0.016918
1386.5697,0.016901
1388.4333,0.016985
1390.2970,0.017045
1392.1607,0.017040
1394.0244,0.016951
1395.8880,0.016921
1397.7517,0.017049
1399.6154,0.017098
1401.4790,0.016961
1403.3427,0.016836
1405.2064,0.016731
1407.0700,0.016462
1408.9337,0.016191
1410.7974,0.015944
1412.6610,0.015721
1414.5247,0.015481
1416.3884,0.015313
1418.2520,0.015136
1420.1157,0.015055
1421.9794,0.015042
1423.8431,0.014951
1425.7067,0.015016
1427.5704,0.015218
1429.4341,0.015597
1431.2977,0.016035
1433.1614,0.016195
1435.0251,0.016253
1436.8887,0.016805
1438.7524,0.017368
1440.6161,0.017448
1442.4797,0.017470
1444.3434,0.017499
1446.2071,0.017553
1448.0707,0.017567
1449.9344,0.017485
1451.7981,0.017139
1453.6618,0.016741
1455.5254,0.016212
1457.3891,0.015876
1459.2528,0.015608
1461.1164,0.015151
1462.9801,0.014648
1464.8438,0.014333
1466.7074,0.013821
1468.5711,0.013245
1470.4348,0.012660
1472.2984,0.012126
1474.1621,0.011884
1476.0258,0.011455
1477.8895,0.011268
1479.7531,0.011084
1481.6168,0.011107
1483.4805,0.011398
1485.3441,0.011550
1487.2078,0.011985
1489.0715,0.012940
1490.9351,0.013934
1492.7988,0.014454
1494.6625,0.014935
1496.5261,0.016243
1498.3898,0.017632
1500.2535,0.018423
1502.1171,0.018954
1503.9808,0.019198
1505.8445,0.019964
1507.7082,0.022360
1509.5718,0.023647
1511.4355,0.024358
1513.2992,0.024989
1515.1628,0.025450
1517.0265,0.025951
1518.8902,0.026468
1520.7538,0.026582
1522.6175,0.026979
1524.4812,0.027239
1526.3448,0.027713
1528.2085,0.028269
1530.0722,0.028608
1531.9359,0.028567
1533.7995,0.028946
1535.6632,0.029232
1537.5269,0.028813
1539.3905,0.028640
1541.2542,0.029035
1543.1179,0.029132
1544.9815,0.029077
1546.8452,0.028607
1548.7089,0.028091
1550.5725,0.027556
1552.4362,0.026900
1554.2999,0.026080
1556.1635,0.025227
1558.0272,0.024064
1559.8909,0.023730
1561.7546,0.023607
1563.6182,0.022835
1565.4819,0.022106
1567.3456,0.021573
1569.2092,0.020854
1571.0729,0.020460
1572.9366,0.019916
1574.8002,0.019249
1576.6639,0.019080
1578.5276,0.019030
1580.3912,0.018646
1582.2549,0.018469
1584.1186,0.018644
1585.9822,0.018986
1587.8459,0.019107
1589.7096,0.019238
1591.5733,0.019644
1593.4369,0.020258
1595.3006,0.021003
1597.1643,0.021553
1599.0279,0.022298
1600.8916,0.023344
1602.7553,0.024255
1604.6189,0.025102
1606.4826,0.026056
1608.3463,0.027110
1610.2099,0.028120
1612.0736,0.029008
1613.9373,0.029736
1615.8010,0.030359
1617.6646,0.031832
1619.5283,0.032938
1621.3920,0.033363
1623.2556,0.033787
1625.1193,0.034511
1626.9830,0.035054
1628.8466,0.035432
1630.7103,0.035517
1632.5740,0.035140
1634.4376,0.034783
1636.3013,0.034493
1638.1650,0.034295
1640.0286,0.034083
1641.8923,0.033619
1643.7560,0.033003
1645.6197,0.032375
1647.4833,0.031660
1649.3470,0.031110
1651.2107,0.030040
1653.0743,0.028665
1654.9380,0.028179
1656.8017,0.027629
1658.6653,0.026743
1660.5290,0.025622
1662.3927,0.024203
1664.2563,0.023162
1666.1200,0.022229
1667.9837,0.020838
1669.8474,0.019339
1671.7110,0.018210
1673.5747,0.016950
1675.4384,0.015645
1677.3020,0.014578
1679.1657,0.013502
1681.0294,0.012198
1682.8930,0.010395
1684.7567,0.008295
1686.6204,0.007361
1688.4840,0.006368
1690.3477,0.005026
1692.2114,0.003833
1694.0750,0.002458
1695.9387,0.000833
1697.8024,-0.000194
1699.6661,-0.001849
1701.5297,-0.003034
1703.3934,-0.003590
1705.2571,-0.004377
1707.1207,-0.004967
1708.9844,-0.005352
1710.8481,-0.005759
1712.7117,-0.006051
1714.5754,-0.006458
1716.4391,-0.007019
1718.3027,-0.007285
1720.1664,-0.006897
1722.0301,-0.006975
1723.8937,-0.007088
1725.7574,-0.007091
1727.6211,-0.007108
1729.4848,-0.007056
1731.3484,-0.007137
1733.2121,-0.007964
1735.0758,-0.007834
1736.9394,-0.007367
1738.8031,-0.007405
1740.6668,-0.007358
1742.5304,-0.007300
1744.3941,-0.007254
1746.2578,-0.007367
1748.1214,-0.007467
1749.9851,-0.007719
1751.8488,-0.007781
1753.7125,-0.007583
1755.5761,-0.007724
1757.4398,-0.007767
1759.3035,-0.007811
1761.1671,-0.007931
1763.0308,-0.007815
1764.8945,-0.007804
1766.7581,-0.007996
1768.6218,-0.007987
1770.4855,-0.008057
1772.3491,-0.008067
1774.2128,-0.007767
1776.0765,-0.007672
1777.9401,-0.007610
1779.8038,-0.007866
1781.6675,-0.007754
1783.5312,-0.007652
1785.3948,-0.007736
1787.2585,-0.007703
1789.1222,-0.007958
1790.9858,-0.008057
1792.8495,-0.007611
1794.7132,-0.007383
1796.5768,-0.007485
1798.4405,-0.007553
1800.3042,-0.007721
1802.1678,-0.007551
1804.0315,-0.007389
1805.8952,-0.007390
1807.7589,-0.007274
1809.6225,-0.007286
1811.4862,-0.007385
1813.3499,-0.007480
1815.2135,-0.007629
1817.0772,-0.007494
1818.9409,-0.007202
1820.8045,-0.007171
1822.6682,-0.007471
1824.5319,-0.007536
1826.3955,-0.007288
1828.2592,-0.007174
1830.1229,-0.006932
1831.9865,-0.006616
1833.8502,-0.006783
1835.7139,-0.006939
1837.5776,-0.007087
1839.4412,-0.007107
1841.3049,-0.006804
1843.1686,-0.006763
1845.0322,-0.006641
1846.8959,-0.006463
1848.7596,-0.006487
1850.6232,-0.006355
1852.4869,-0.006311
1854.3506,-0.006510
1856.2142,-0.006785
1858.0779,-0.006881
1859.9416,-0.006582
1861.8052,-0.006115
1863.6689,-0.006179
1865.5326,-0.006298
1867.3963,-0.006376
1869.2599,-0.006158
1871.1236,-0.005748
1872.9873,-0.005830
1874.8509,-0.006413
1876.7146,-0.006649
1878.5783,-0.006306
1880.4419,-0.005830
1882.3056,-0.005701
1884.1693,-0.006120
1886.0329,-0.006565
1887.8966,-0.006283
1889.7603,-0.005627
1891.6240,-0.005926
1893.4876,-0.006862
1895.3513,-0.006732
1897.2150,-0.006488
1899.0786,-0.006512
1900.9423,-0.006145
1902.8060,-0.005874
1904.6696,-0.005896
1906.5333,-0.006295
1908.3970,-0.006473
1910.2606,-0.006055
1912.1243,-0.005846
1913.9880,-0.005838
1915.8516,-0.005935
1917.7153,-0.006215
1919.5790,-0.005837
1921.4427,-0.005215
1923.3063,-0.005170
1925.1700,-0.005432
1927.0337,-0.005649
1928.8973,-0.005582
1930.7610,-0.005376
1932.6247,-0.005249
1934.4883,-0.005170
1936.3520,-0.004743
1938.2157,-0.004460
1940.0793,-0.004600
1941.9430,-0.004277
1943.8067,-0.003945
1945.6704,-0.003860
1947.5340,-0.003761
1949.3977,-0.003960
1951.2614,-0.003893
1953.1250,-0.003648
1954.9887,-0.003953
1956.8524,-0.003929
1958.7160,-0.003869
1960.5797,-0.004030
1962.4434,-0.003671
1964.3070,-0.003722
1966.1707,-0.003294
1968.0344,-0.003129
1969.8980,-0.003485
1971.7617,-0.002202
1973.6254,-0.001551
1975.4891,-0.001917
1977.3527,-0.001659
1979.2164,-0.001880
1981.0801,-0.002360
1982.9437,-0.002151
1984.8074,-0.001816
1986.6711,-0.002001
1988.5347,-0.002275
1990.3984,-0.001868
1992.2621,-0.001354
1994.1257,-0.001647
1995.9894,-0.002866
1997.8531,-0.003642
1999.7167,-0.003424
2001.5804,-0.004095
2003.4441,-0.004420
2005.3078,-0.003176
2007.1714,-0.001865
2009.0351,-0.001426
2010.8988,-0.001200
2012.7624,-0.001080
2014.6261,-0.002059
2016.4898,-0.002841
2018.3534,-0.002672
2020.2171,-0.003016
2022.0808,-0.003061
2023.9444,-0.003755
2025.8081,-0.004162
2027.6718,-0.002037
2029.5355,-0.000843
2031.3991,-0.001974
2033.2628,-0.001625
2035.1265,0.000282
2036.9901,0.000666
2038.8538,-0.001415
2040.7175,-0.002901
2042.5811,-0.002469
2044.4448,-0.002526
2046.3085,-0.002665
2048.1721,-0.001993
2050.0358,-0.001574
2051.8995,-0.002153
2053.7631,-0.003068
2055.6268,-0.003003
2057.4905,-0.002498
2059.3542,-0.002303
2061.2178,-0.002822
2063.0815,-0.003757
2064.9452,-0.003966
2066.8088,-0.003482
2068.6725,-0.002931
2070.5362,-0.002708
2072.3998,-0.002693
2074.2635,-0.003442
2076.1272,-0.004376
2077.9908,-0.003672
2079.8545,-0.003087
2081.7182,-0.003948
2083.5819,-0.004123
2085.4455,-0.003550
2087.3092,-0.003622
2089.1729,-0.004061
2091.0365,-0.004269
2092.9002,-0.004532
2094.7639,-0.005064
2096.6275,-0.004965
2098.4912,-0.004534
2100.3549,-0.004515
2102.2185,-0.004200
2104.0822,-0.004056
2105.9459,-0.004376
2107.8095,-0.004573
2109.6732,-0.004644
2111.5369,-0.004707
2113.4006,-0.004431
2115.2642,-0.004438
2117.1279,-0.004818
2118.9916,-0.005047
2120.8552,-0.004796
2122.7189,-0.004422
2124.5826,-0.005105
2126.4462,-0.006005
2128.3099,-0.005835
2130.1736,-0.005052
2132.0372,-0.004908
2133.9009,-0.004882
2135.7646,-0.004224
2137.6282,-0.003790
2139.4919,-0.003657
2141.3556,-0.003579
2143.2193,-0.003863
2145.0829,-0.004657
2146.9466,-0.004189
2148.8103,-0.002812
2150.6739,-0.002761
2152.5376,-0.002909
2154.4013,-0.003162
2156.2649,-0.003820
2158.1286,-0.002454
2159.9923,-0.000481
2161.8559,-0.000522
2163.7196,0.000109
2165.5833,0.000704
2167.4470,-0.000782
2169.3106,-0.001670
2171.1743,-0.001512
2173.0380,-0.002414
2174.9016,-0.003348
2176.7653,-0.002608
2178.6290,-0.002263
2180.4926,-0.002749
2182.3563,-0.001967
2184.2200,-0.001313
2186.0836,-0.001539
2187.9473,-0.001406
2189.8110,-0.001682
2191.6746,-0.002164
2193.5383,-0.001858
2195.4020,-0.001971
2197.2657,-0.002805
2199.1293,-0.002824
2200.9930,-0.002556
2202.8567,-0.002883
2204.7203,-0.003004
2206.5840,-0.003133
2208.4477,-0.003564
2210.3113,-0.003595
2212.1750,-0.003562
2214.0387,-0.003559
2215.9023,-0.003322
2217.7660,-0.003120
2219.6297,-0.003261
2221.4934,-0.003203
2223.3570,-0.002877
2225.2207,-0.003538
2227.0844,-0.003870
2228.9480,-0.003659
2230.8117,-0.003912
2232.6754,-0.003764
2234.5390,-0.003870
2236.4027,-0.004120
2238.2664,-0.003874
2240.1300,-0.004215
2241.9937,-0.003949
2243.8574,-0.003211
2245.7210,-0.003787
2247.5847,-0.004427
2249.4484,-0.004498
2251.3121,-0.004695
2253.1757,-0.004616
2255.0394,-0.004266
2256.9031,-0.004034
2258.7667,-0.003743
2260.6304,-0.003983
2262.4941,-0.004752
2264.3577,-0.005102
2266.2214,-0.004812
2268.0851,-0.004104
2269.9487,-0.003584
2271.8124,-0.004242
2273.6761,-0.005069
2275.5397,-0.004702
2277.4034,-0.004266
2279.2671,-0.004479
2281.1308,-0.004642
2282.9944,-0.004707
2284.8581,-0.004694
2286.7218,-0.004687
2288.5854,-0.004729
2290.4491,-0.004559
2292.3128,-0.004698
2294.1764,-0.005104
2296.0401,-0.005372
2297.9038,-0.005529
2299.7674,-0.005537
2301.6311,-0.005711
2303.4948,-0.005808
2305.3585,-0.005701
2307.2221,-0.005706
2309.0858,-0.005707
2310.9495,-0.005564
2312.8131,-0.005520
2314.6768,-0.005684
2316.5405,-0.005650
2318.4041,-0.005536
2320.2678,-0.005287
2322.1315,-0.004858
2323.9951,-0.004669
2325.8588,-0.005380
2327.7225,-0.006552
2329.5861,-0.006835
2331.4498,-0.006228
2333.3135,-0.005790
2335.1772,-0.005776
2337.0408,-0.005982
2338.9045,-0.006443
2340.7682,-0.006565
2342.6318,-0.006228
2344.4955,-0.006209
2346.3592,-0.006428
2348.2228,-0.006504
2350.0865,-0.006497
2351.9502,-0.006632
2353.8138,-0.006427
2355.6775,-0.005691
2357.5412,-0.005268
2359.4049,-0.005304
2361.2685,-0.005212
2363.1322,-0.005281
2364.9959,-0.005664
2366.8595,-0.005805
2368.7232,-0.005916
2370.5869,-0.006441
2372.4505,-0.006898
2374.3142,-0.006763
2376.1779,-0.006466
2378.0415,-0.006534
2379.9052,-0.006784
2381.7689,-0.006791
2383.6325,-0.006597
2385.4962,-0.006682
2387.3599,-0.006878
2389.2236,-0.007029
2391.0872,-0.006844
2392.9509,-0.006684
2394.8146,-0.006782
2396.6782,-0.006773
2398.5419,-0.006555
2400.4056,-0.006491
2402.2692,-0.006567
2404.1329,-0.006569
2405.9966,-0.006573
2407.8602,-0.006501
2409.7239,-0.006407
2411.5876,-0.006397
2413.4512,-0.006284
2415.3149,-0.006323
2417.1786,-0.006368
2419.0423,-0.006396
2420.9059,-0.006427
2422.7696,-0.006289
2424.6333,-0.006079
2426.4969,-0.005907
2428.3606,-0.005824
2430.2243,-0.006031
2432.0879,-0.006209
2433.9516,-0.006234
2435.8153,-0.005940
2437.6789,-0.005831
2439.5426,-0.006055
2441.4063,-0.005813
2443.2700,-0.005394
2445.1336,-0.005448
2446.9973,-0.005608
2448.8610,-0.005623
2450.7246,-0.005341
2452.5883,-0.005232
2454.4520,-0.005384
2456.3156,-0.005393
2458.1793,-0.005223
2460.0430,-0.005467
2461.9066,-0.005639
2463.7703,-0.005527
2465.6340,-0.005448
2467.4976,-0.005623
2469.3613,-0.005716
2471.2250,-0.005647
2473.0887,-0.005524
2474.9523,-0.005253
2476.8160,-0.005368
2478.6797,-0.005396
2480.5433,-0.005212
2482.4070,-0.005215
2484.2707,-0.005137
2486.1343,-0.005309
2487.9980,-0.005481
2489.8617,-0.005236
2491.7253,-0.004878
2493.5890,-0.005158
2495.4527,-0.005318
2497.3164,-0.005307
2499.1800,-0.005392
2501.0437,-0.005164
2502.9074,-0.005196
2504.7710,-0.005287
2506.6347,-0.004775
2508.4984,-0.004512
2510.3620,-0.005028
2512.2257,-0.005175
2514.0894,-0.004952
2515.9530,-0.004994
2517.8167,-0.005080
2519.6804,-0.005143
2521.5440,-0.005117
2523.4077,-0.004937
2525.2714,-0.004767
2527.1351,-0.004792
2528.9987,-0.004729
2530.8624,-0.004736
2532.7261,-0.004904
2534.5897,-0.005150
2536.4534,-0.005265
2538.3171,-0.005309
2540.1807,-0.005097
2542.0444,-0.004687
2543.9081,-0.004417
2545.7717,-0.004518
2547.6354,-0.004605
2549.4991,-0.004891
2551.3627,-0.005057
2553.2264,-0.004811
2555.0901,-0.004559
2556.9538,-0.004453
2558.8174,-0.004271
2560.6811,-0.004306
2562.5448,-0.004490
2564.4084,-0.004501
2566.2721,-0.004629
2568.1358,-0.004452
2569.9994,-0.004046
2571.8631,-0.004374
2573.7268,-0.004742
2575.5904,-0.004581
2577.4541,-0.004649
2579.3178,-0.004531
2581.1815,-0.004089
2583.0451,-0.003954
2584.9088,-0.004072
2586.7725,-0.004295
2588.6361,-0.004398
2590.4998,-0.004444
2592.3635,-0.004314
2594.2271,-0.004104
2596.0908,-0.004096
2597.9545,-0.004262
2599.8181,-0.004135
2601.6818,-0.003947
2603.5455,-0.003897
2605.4091,-0.004182
2607.2728,-0.004233
2609.1365,-0.003877
2611.0002,-0.003717
2612.8638,-0.003844
2614.7275,-0.003601
2616.5912,-0.003401
2618.4548,-0.003712
2620.3185,-0.004006
2622.1822,-0.003729
2624.0458,-0.003522
2625.9095,-0.003805
2627.7732,-0.003953
2629.6368,-0.003757
2631.5005,-0.003625
2633.3642,-0.003704
2635.2279,-0.003694
2637.0915,-0.003431
2638.9552,-0.003456
2640.8189,-0.003515
2642.6825,-0.003349
2644.5462,-0.003513
2646.4099,-0.003694
2648.2735,-0.003736
2650.1372,-0.003688
2652.0009,-0.003428
2653.8645,-0.003205
2655.7282,-0.003263
2657.5919,-0.003322
2659.4555,-0.003355
2661.3192,-0.003490
2663.1829,-0.003620
2665.0466,-0.003576
2666.9102,-0.003441
2668.7739,-0.003402
2670.6376,-0.003410
2672.5012,-0.003451
2674.3649,-0.003453
2676.2286,-0.003456
2678.0922,-0.003481
2679.9559,-0.003513
2681.8196,-0.003460
2683.6832,-0.003408
2685.5469,-0.003455
2687.4106,-0.003391
2689.2742,-0.003175
2691.1379,-0.003093
2693.0016,-0.003186
2694.8653,-0.003226
2696.7289,-0.003093
2698.5926,-0.003048
2700.4563,-0.002984
2702.3199,-0.002935
2704.1836,-0.002931
2706.0473,-0.002937
2707.9109,-0.002997
2709.7746,-0.002926
2711.6383,-0.002651
2713.5019,-0.002586
2715.3656,-0.002696
2717.2293,-0.002410
2719.0930,-0.002091
2720.9566,-0.002197
2722.8203,-0.002410
2724.6840,-0.002219
2726.5476,-0.002146
2728.4113,-0.002197
2730.2750,-0.002144
2732.1386,-0.002142
2734.0023,-0.002038
2735.8660,-0.001861
2737.7296,-0.001924
2739.5933,-0.001809
2741.4570,-0.001670
2743.3206,-0.001698
2745.1843,-0.001546
2747.0480,-0.001435
2748.9117,-0.001429
2750.7753,-0.001382
2752.6390,-0.001253
2754.5027,-0.001114
2756.3663,-0.001049
2758.2300,-0.001126
2760.0937,-0.001029
2761.9573,-0.000810
2763.8210,-0.000868
2765.6847,-0.000902
2767.5483,-0.000838
2769.4120,-0.000721
2771.2757,-0.000695
2773.1394,-0.000676
2775.0030,-0.000478
2776.8667,-0.000326
2778.7304,-0.000254
2780.5940,-0.000406
2782.4577,-0.000409
2784.3214,-0.000159
2786.1850,-0.000047
2788.0487,-0.000126
2789.9124,0.000005
2791.7760,0.000081
2793.6397,0.000161
2795.5034,0.000358
2797.3670,0.000404
2799.2307,0.000445
2801.0944,0.000587
2802.9581,0.000507
2804.8217,0.000569
2806.6854,0.000805
2808.5491,0.001012
2810.4127,0.001140
2812.2764,0.001095
2814.1401,0.001084
2816.0037,0.001081
2817.8674,0.001356
2819.7311,0.001731
2821.5947,0.001773
2823.4584,0.001731
2825.3221,0.001794
2827.1857,0.002175
2829.0494,0.002432
2830.9131,0.002422
2832.7768,0.002484
2834.6404,0.002446
2836.5041,0.002589
2838.3678,0.002828
2840.2314,0.002982
2842.0951,0.003230
2843.9588,0.003572
2845.8224,0.003710
2847.6861,0.003906
2849.5498,0.004398
2851.4134,0.004936
2853.2771,0.005114
2855.1408,0.004887
2857.0045,0.004692
2858.8681,0.004850
2860.7318,0.004948
2862.5955,0.005132
2864.4591,0.005295
2866.3228,0.005321
2868.1865,0.005398
2870.0501,0.005677
2871.9138,0.006021
2873.7775,0.006081
2875.6411,0.005785
2877.5048,0.005887
2879.3685,0.005983
2881.2321,0.005874
2883.0958,0.005996
2884.9595,0.006130
2886.8232,0.006169
2888.6868,0.006144
2890.5505,0.006243
2892.4142,0.006511
2894.2778,0.006833
2896.1415,0.006741
2898.0052,0.006588
2899.8688,0.006741
2901.7325,0.007089
2903.5962,0.007250
2905.4598,0.007195
2907.3235,0.007406
2909.1872,0.007664
2911.0509,0.007923
2912.9145,0.008214
2914.7782,0.008361
2916.6419,0.008524
2918.5055,0.008690
2920.3692,0.008936
2922.2329,0.009208
2924.0965,0.009421
2925.9602,0.009628
2927.8239,0.009534
2929.6875,0.009348
2931.5512,0.009184
2933.4149,0.009235
2935.2785,0.009208
2937.1422,0.009000
2939.0059,0.008877
2940.8696,0.008534
2942.7332,0.008427
2944.5969,0.008497
2946.4606,0.008466
2948.3242,0.008242
2950.1879,0.007977
2952.0516,0.008120
2953.9152,0.008298
2955.7789,0.008226
2957.6426,0.007894
2959.5062,0.007884
2961.3699,0.008101
2963.2336,0.008099
2965.0972,0.007823
2966.9609,0.007587
2968.8246,0.007555
2970.6883,0.007414
2972.5519,0.007142
2974.4156,0.006931
2976.2793,0.006857
2978.1429,0.006807
2980.0066,0.006359
2981.8703,0.006149
2983.7339,0.006170
2985.5976,0.006289
2987.4613,0.006142
2989.3249,0.005698
2991.1886,0.005535
2993.0523,0.005692
2994.9160,0.005930
2996.7796,0.005742
2998.6433,0.005504
3000.5070,0.005437
3002.3706,0.005481
3004.2343,0.005876
3006.0980,0.006125
3007.9616,0.005841
3009.8253,0.005706
3011.6890,0.006115
3013.5526,0.006371
3015.4163,0.006400
3017.2800,0.006288
3019.1436,0.006447
3021.0073,0.006802
3022.8710,0.006919
3024.7347,0.006894
3026.5983,0.006933
3028.4620,0.007031
3030.3257,0.006969
3032.1893,0.006994
3034.0530,0.007393
3035.9167,0.007595
3037.7803,0.007617
3039.6440,0.007793
3041.5077,0.008034
3043.3713,0.008211
3045.2350,0.008059
3047.0987,0.008095
3048.9624,0.008410
3050.8260,0.008514
3052.6897,0.008767
3054.5534,0.008958
3056.4170,0.008900
3058.2807,0.008885
3060.1444,0.009408
3062.0080,0.009681
3063.8717,0.009474
3065.7354,0.009324
3067.5990,0.009545
3069.4627,0.009713
3071.3264,0.009797
3073.1900,0.009953
3075.0537,0.010160
3076.9174,0.010163
3078.7811,0.010214
3080.6447,0.010257
3082.5084,0.010102
3084.3721,0.009859
3086.2357,0.009848
3088.0994,0.009997
3089.9631,0.010099
3091.8267,0.010055
3093.6904,0.009865
3095.5541,0.009953
3097.4177,0.010321
3099.2814,0.010264
3101.1451,0.010011
3103.0087,0.009800
3104.8724,0.009986
3106.7361,0.010191
3108.5998,0.010270
3110.4634,0.010250
3112.3271,0.010285
3114.1908,0.010428
3116.0544,0.010286
3117.9181,0.010365
3119.7818,0.011019
3121.6454,0.011106
3123.5091,0.010912
3125.3728,0.011112
3127.2364,0.011347
3129.1001,0.011113
3130.9638,0.011256
3132.8275,0.011473
3134.6911,0.011324
3136.5548,0.011142
3138.4185,0.011488
3140.2821,0.011827
3142.1458,0.012144
3144.0095,0.012522
3145.8731,0.012493
3147.7368,0.012302
3149.6005,0.012739
3151.4641,0.013285
3153.3278,0.013473
3155.1915,0.013575
3157.0551,0.013576
3158.9188,0.013155
3160.7825,0.013096
3162.6462,0.013507
3164.5098,0.013886
3166.3735,0.014016
3168.2372,0.014314
3170.1008,0.014449
3171.9645,0.014567
3173.8282,0.014683
3175.6918,0.014898
3177.5555,0.015325
3179.4192,0.015789
3181.2828,0.015566
3183.1465,0.015021
3185.0102,0.015430
3186.8739,0.016068
3188.7375,0.015846
3190.6012,0.015807
3192.4649,0.016184
3194.3285,0.016480
3196.1922,0.016701
3198.0559,0.016750
3199.9195,0.016695
3201.7832,0.016697
3203.6469,0.016774
3205.5105,0.016714
3207.3742,0.016507
3209.2379,0.016930
3211.1015,0.017324
3212.9652,0.017392
3214.8289,0.017344
3216.6926,0.017204
3218.5562,0.017355
3220.4199,0.017481
3222.2836,0.017357
3224.1472,0.017298
3226.0109,0.017422
3227.8746,0.017850
3229.7382,0.017984
3231.6019,0.018034
3233.4656,0.017987
3235.3292,0.017798
3237.1929,0.017881
3239.0566,0.018047
3240.9202,0.018039
3242.7839,0.018220
3244.6476,0.018556
3246.5113,0.018637
3248.3749,0.018739
3250.2386,0.018824
3252.1023,0.018653
3253.9659,0.018648
3255.8296,0.018801
3257.6933,0.018570
3259.5569,0.018290
3261.4206,0.018494
3263.2843,0.018782
3265.1479,0.018778
3267.0116,0.018609
3268.8753,0.018792
3270.7390,0.019286
3272.6026,0.019806
3274.4663,0.019560
3276.3300,0.019026
3278.1936,0.019032
3280.0573,0.019170
3281.9210,0.019223
3283.7846,0.018919
3285.6483,0.018406
3287.5120,0.018715
3289.3756,0.018897
3291.2393,0.018611
3293.1030,0.018536
3294.9666,0.018528
3296.8303,0.018330
3298.6940,0.018350
3300.5577,0.018426
3302.4213,0.018336
3304.2850,0.018212
3306.1487,0.017687
3308.0123,0.017421
3309.8760,0.017558
3311.7397,0.017518
3313.6033,0.017559
3315.4670,0.017486
3317.3307,0.017209
3319.1943,0.016918
3321.0580,0.016865
3322.9217,0.016915
3324.7854,0.017157
3326.6490,0.017068
3328.5127,0.016397
3330.3764,0.016318
3332.2400,0.016509
3334.1037,0.016417
3335.9674,0.016585
3337.8310,0.016381
3339.6947,0.016178
3341.5584,0.016134
3343.4220,0.016225
3345.2857,0.016285
3347.1494,0.016010
3349.0130,0.015562
3350.8767,0.015408
3352.7404,0.015254
3354.6041,0.015138
3356.4677,0.015486
3358.3314,0.015578
3360.1951,0.015252
3362.0587,0.015009
3363.9224,0.015272
3365.7861,0.015514
3367.6497,0.014839
3369.5134,0.014046
3371.3771,0.014050
3373.2407,0.014444
3375.1044,0.014491
3376.9681,0.014351
3378.8317,0.014241
3380.6954,0.014003
3382.5591,0.013619
3384.4228,0.013543
3386.2864,0.013748
3388.1501,0.013425
3390.0138,0.013239
3391.8774,0.013824
3393.7411,0.013772
3395.6048,0.013462
3397.4684,0.013562
3399.3321,0.013336
3401.1958,0.012588
3403.0594,0.012140
3404.9231,0.012565
3406.7868,0.012751
3408.6505,0.012469
3410.5141,0.012593
3412.3778,0.012347
3414.2415,0.012112
3416.1051,0.012356
3417.9688,0.012183
3419.8325,0.011872
3421.6961,0.011795
3423.5598,0.011812
3425.4235,0.011618
3427.2871,0.010795
3429.1508,0.010372
3431.0145,0.010617
3432.8781,0.010512
3434.7418,0.010085
3436.6055,0.009972
3438.4692,0.010412
3440.3328,0.010872
3442.1965,0.010495
3444.0602,0.009928
3445.9238,0.009670
3447.7875,0.009672
3449.6512,0.010100
3451.5148,0.010115
3453.3785,0.009739
3455.2422,0.009236
3457.1058,0.008875
3458.9695,0.008946
3460.8332,0.008752
3462.6969,0.008442
3464.5605,0.008409
3466.4242,0.008419
3468.2879,0.008486
3470.1515,0.008208
3472.0152,0.007547
3473.8789,0.007181
3475.7425,0.006906
3477.6062,0.006222
3479.4699,0.006115
3481.3335,0.006843
3483.1972,0.006485
3485.0609,0.006175
3486.9245,0.006555
3488.7882,0.006341
3490.6519,0.005546
3492.5156,0.004841
3494.3792,0.004779
3496.2429,0.004830
3498.1066,0.004319
3499.9702,0.004009
3501.8339,0.004339
3503.6976,0.004690
3505.5612,0.004049
3507.4249,0.003646
3509.2886,0.003698
3511.1522,0.003235
3513.0159,0.003004
3514.8796,0.002825
3516.7432,0.002717
3518.6069,0.002679
3520.4706,0.001941
3522.3343,0.001252
3524.1979,0.001551
3526.0616,0.002468
3527.9253,0.002443
3529.7889,0.001365
3531.6526,0.000926
3533.5163,0.001449
3535.3799,0.001644
3537.2436,0.001284
3539.1073,0.000563
3540.9709,0.000170
3542.8346,-0.000053
3544.6983,-0.000831
3546.5620,-0.000947
3548.4256,-0.000375
3550.2893,-0.000263
3552.1530,-0.001020
3554.0166,-0.001717
3555.8803,-0.001683
3557.7440,-0.001969
3559.6076,-0.002325
3561.4713,-0.002285
3563.3350,-0.002610
3565.1986,-0.002875
3567.0623,-0.003177
3568.9260,-0.003430
3570.7896,-0.003078
3572.6533,-0.002398
3574.5170,-0.002268
3576.3807,-0.002906
3578.2443,-0.003197
3580.1080,-0.003440
3581.9717,-0.003979
3583.8353,-0.004115
3585.6990,-0.004345
3587.5627,-0.004630
3589.4263,-0.004546
3591.2900,-0.004646
3593.1537,-0.004912
3595.0173,-0.005062
3596.8810,-0.005219
3598.7447,-0.005481
3600.6084,-0.005689
3602.4720,-0.005641
3604.3357,-0.005357
3606.1994,-0.005434
3608.0630,-0.005890
3609.9267,-0.006239
3611.7904,-0.006435
3613.6540,-0.006521
3615.5177,-0.006509
3617.3814,-0.006684
3619.2450,-0.006893
3621.1087,-0.006796
3622.9724,-0.007148
3624.8360,-0.007718
3626.6997,-0.008027
3628.5634,-0.008113
3630.4271,-0.007614
3632.2907,-0.007155
3634.1544,-0.007524
3636.0181,-0.008199
3637.8817,-0.008428
3639.7454,-0.008142
3641.6091,-0.007969
3643.4727,-0.008353
3645.3364,-0.008738
3647.2001,-0.008903
3649.0637,-0.008802
3650.9274,-0.008565
3652.7911,-0.008667
3654.6547,-0.008863
3656.5184,-0.009239
3658.3821,-0.009491
3660.2458,-0.009267
3662.1094,-0.009458
3663.9731,-0.009768
3665.8368,-0.009567
3667.7004,-0.009454
3669.5641,-0.009869
3671.4278,-0.010246
3673.2914,-0.010024
3675.1551,-0.010071
3677.0188,-0.010095
3678.8824,-0.009795
3680.7461,-0.009906
3682.6098,-0.009833
3684.4735,-0.009982
3686.3371,-0.010579
3688.2008,-0.010561
3690.0645,-0.009940
3691.9281,-0.009619
3693.7918,-0.009772
3695.6555,-0.009841
3697.5191,-0.009914
3699.3828,-0.010321
3701.2465,-0.010550
3703.1101,-0.010333
3704.9738,-0.010062
3706.8375,-0.010164
3708.7011,-0.010522
3710.5648,-0.010805
3712.4285,-0.010837
3714.2922,-0.010894
3716.1558,-0.010624
3718.0195,-0.010084
3719.8832,-0.009830
3721.7468,-0.009903
3723.6105,-0.010189
3725.4742,-0.010626
3727.3378,-0.010780
3729.2015,-0.010391
3731.0652,-0.010308
3732.9288,-0.010763
3734.7925,-0.010787
3736.6562,-0.010167
3738.5199,-0.009776
3740.3835,-0.009848
3742.2472,-0.010273
3744.1109,-0.011033
3745.9745,-0.010866
3747.8382,-0.010495
3749.7019,-0.010917
3751.5655,-0.010419
3753.4292,-0.009743
3755.2929,-0.009902
3757.1565,-0.010006
3759.0202,-0.010101
3760.8839,-0.010240
3762.7475,-0.010078
3764.6112,-0.010140
3766.4749,-0.010508
3768.3386,-0.010640
3770.2022,-0.010756
3772.0659,-0.010684
3773.9296,-0.010330
3775.7932,-0.010190
3777.6569,-0.010280
3779.5206,-0.010265
3781.3842,-0.010101
3783.2479,-0.010239
3785.1116,-0.010486
3786.9752,-0.010246
3788.8389,-0.009992
3790.7026,-0.010123
3792.5662,-0.010471
3794.4299,-0.010302
3796.2936,-0.010030
3798.1573,-0.010380
3800.0209,-0.010656
3801.8846,-0.010680
3803.7483,-0.010246
3805.6119,-0.010428
3807.4756,-0.011105
3809.3393,-0.010557
3811.2029,-0.010014
3813.0666,-0.010258
3814.9303,-0.010503
3816.7939,-0.010680
3818.6576,-0.010430
3820.5213,-0.010214
3822.3850,-0.010646
3824.2486,-0.010425
3826.1123,-0.010202
3827.9760,-0.010143
3829.8396,-0.009865
3831.7033,-0.010139
3833.5670,-0.010536
3835.4306,-0.010402
3837.2943,-0.010564
3839.1580,-0.010753
3841.0216,-0.010336
3842.8853,-0.010427
3844.7490,-0.010808
3846.6126,-0.010327
3848.4763,-0.010062
3850.3400,-0.010378
3852.2037,-0.010654
3854.0673,-0.010635
3855.9310,-0.010227
3857.7947,-0.010107
3859.6583,-0.010485
3861.5220,-0.010643
3863.3857,-0.010311
3865.2493,-0.010100
3867.1130,-0.010223
3868.9767,-0.010641
3870.8403,-0.010931
3872.7040,-0.010016
3874.5677,-0.009856
3876.4314,-0.009918
3878.2950,-0.009963
3880.1587,-0.010419
3882.0224,-0.010293
3883.8860,-0.010026
3885.7497,-0.010451
3887.6134,-0.010410
3889.4770,-0.010068
3891.3407,-0.010323
3893.2044,-0.010257
3895.0680,-0.009963
3896.9317,-0.010005
3898.7954,-0.010241
3900.6590,-0.010578
3902.5227,-0.010703
3904.3864,-0.010533
3906.2501,-0.009838
3908.1137,-0.009632
3909.9774,-0.010158
3911.8411,-0.010308
3913.7047,-0.009787
3915.5684,-0.009394
3917.4321,-0.009790
3919.2957,-0.010154
3921.1594,-0.009701
3923.0231,-0.009522
3924.8867,-0.009820
3926.7504,-0.010078
3928.6141,-0.010146
3930.4777,-0.009961
3932.3414,-0.009813
3934.2051,-0.009789
3936.0688,-0.009960
3937.9324,-0.010228
3939.7961,-0.010365
3941.6598,-0.010464
3943.5234,-0.010306
3945.3871,-0.009856
3947.2508,-0.009931
3949.1144,-0.010070
3950.9781,-0.009982
3952.8418,-0.010178
3954.7054,-0.010143
3956.5691,-0.009954
3958.4328,-0.009771
3960.2965,-0.009814
3962.1601,-0.010025
3964.0238,-0.009909
3965.8875,-0.009862
3967.7511,-0.009933
3969.6148,-0.009814
3971.4785,-0.009730
3973.3421,-0.009410
3975.2058,-0.009404
3977.0695,-0.009944
3978.9331,-0.010200
3980.7968,-0.010025
3982.6605,-0.009965
3984.5241,-0.009960
3986.3878,-0.009658
3988.2515,-0.009404
3990.1152,-0.009428
3991.9788,-0.009529
3993.8425,-0.009952
3995.7062,-0.010246
3997.5698,-0.009898
3999.4335,-0.009727
