Wavenumber,Intensity
650.4205,0.103654
652.2841,0.104007
654.1478,0.103024
656.0115,0.100646
657.8751,0.098985
659.7388,0.100418
661.6025,0.102495
663.4661,0.102210
665.3298,0.102272
667.1935,0.104308
669.0571,0.102630
670.9208,0.098839
672.7845,0.097982
674.6481,0.097317
676.5118,0.097134
678.3755,0.097416
680.2392,0.096857
682.1028,0.095996
683.9665,0.094650
685.8302,0.093306
687.6938,0.093277
689.5575,0.093161
691.4212,0.091886
693.2848,0.090572
695.1485,0.090882
697.0122,0.090997
698.8758,0.089779
700.7395,0.088978
702.6032,0.088265
704.4669,0.087671
706.3305,0.086965
708.1942,0.085833
710.0579,0.085602
711.9215,0.085192
713.7852,0.083994
715.6489,0.082993
717.5125,0.082206
719.3762,0.081561
721.2399,0.081448
723.1035,0.081139
724.9672,0.080270
726.8309,0.079151
728.6945,0.078635
730.5582,0.078632
732.4219,0.077923
734.2856,0.077429
736.1492,0.078053
738.0129,0.077710
739.8766,0.076225
741.7402,0.075616
743.6039,0.075699
745.4676,0.075462
747.3312,0.075146
749.1949,0.074843
751.0586,0.074349
752.9222,0.073835
754.7859,0.073477
756.6496,0.072788
758.5132,0.071956
760.3769,0.071998
762.2406,0.072038
764.1043,0.071278
765.9679,0.070771
767.8316,0.070798
769.6953,0.070392
771.5589,0.069898
773.4226,0.069500
775.2863,0.068703
777.1499,0.068213
779.0136,0.068141
780.8773,0.067850
782.7409,0.067363
784.6046,0.067023
786.4683,0.066637
788.3320,0.065645
790.1956,0.064924
792.0593,0.064728
793.9230,0.064141
795.7866,0.063371
797.6503,0.063006
799.5140,0.062909
801.3776,0.062513
803.2413,0.062096
805.1050,0.061962
806.9686,0.061809
808.8323,0.061823
810.6960,0.061739
812.5596,0.061233
814.4233,0.061010
816.2870,0.061239
818.1507,0.061073
820.0143,0.060727
821.8780,0.060345
823.7417,0.060070
825.6053,0.059892
827.4690,0.059620
829.3327,0.059710
831.1963,0.059993
833.0600,0.059804
834.9237,0.059389
836.7873,0.059110
838.6510,0.058633
840.5147,0.057904
842.3784,0.057565
844.2420,0.057459
846.1057,0.057062
847.9694,0.056434
849.8330,0.055813
851.6967,0.055362
853.5604,0.055173
855.4240,0.054997
857.2877,0.054622
859.1514,0.054014
861.0150,0.053535
862.8787,0.053554
864.7424,0.053566
866.6060,0.053294
868.4697,0.053062
870.3334,0.052967
872.1971,0.052829
874.0607,0.052347
875.9244,0.051786
877.7881,0.051293
879.6517,0.050653
881.5154,0.049887
883.3791,0.049089
885.2427,0.048487
887.1064,0.047947
888.9701,0.047275
890.8337,0.046755
892.6974,0.046571
894.5611,0.046425
896.4247,0.046015
898.2884,0.045537
900.1521,0.045067
902.0158,0.044648
903.8794,0.044485
905.7431,0.044364
907.6068,0.044218
909.4704,0.044378
911.3341,0.044555
913.1978,0.044495
915.0614,0.044613
916.9251,0.045093
918.7888,0.045523
920.6524,0.045677
922.5161,0.045915
924.3798,0.046309
926.2435,0.046562
928.1071,0.046826
929.9708,0.047018
931.8345,0.047198
933.6981,0.047526
935.5618,0.047980
937.4255,0.048542
939.2891,0.049305
941.1528,0.050171
943.0165,0.050889
944.8801,0.051542
946.7438,0.052290
948.6075,0.052898
950.4711,0.053306
952.3348,0.053841
954.1985,0.054589
956.0622,0.055504
957.9258,0.056615
959.7895,0.057885
961.6532,0.059431
963.5168,0.061090
965.3805,0.062802
967.2442,0.064591
969.1078,0.066355
970.9715,0.068197
972.8352,0.069999
974.6988,0.071706
976.5625,0.073598
978.4262,0.075418
980.2899,0.077230
982.1535,0.079152
984.0172,0.080837
985.8809,0.082133
987.7445,0.083241
989.6082,0.084035
991.4719,0.084706
993.3355,0.085300
995.1992,0.085818
997.0629,0.086465
998.9265,0.087234
1000.7902,0.087947
1002.6539,0.088640
1004.5175,0.089463
1006.3812,0.090572
1008.2449,0.091864
1010.1086,0.093194
1011.9722,0.094663
1013.8359,0.096230
1015.6996,0.097728
1017.5632,0.099133
1019.4269,0.100411
1021.2906,0.101571
1023.1542,0.102568
1025.0179,0.103521
1026.8816,0.104338
1028.7452,0.105123
1030.6089,0.106017
1032.4726,0.106821
1034.3362,0.107392
1036.1999,0.107901
1038.0636,0.108384
1039.9273,0.108890
1041.7909,0.109404
1043.6546,0.109830
1045.5183,0.110224
1047.3819,0.110670
1049.2456,0.111095
1051.1093,0.111573
1052.9729,0.112156
1054.8366,0.112603
1056.7003,0.113048
1058.5639,0.113533
1060.4276,0.113788
1062.2913,0.113885
1064.1550,0.113837
1066.0186,0.113779
1067.8823,0.113637
1069.7460,0.113327
1071.6096,0.112671
1073.4733,0.111755
1075.3370,0.110609
1077.2006,0.109247
1079.0643,0.107756
1080.9280,0.106073
1082.7916,0.104069
1084.6553,0.101911
1086.5190,0.099852
1088.3826,0.097903
1090.2463,0.096017
1092.1100,0.094155
1093.9737,0.092251
1095.8373,0.090275
1097.7010,0.088270
1099.5647,0.086394
1101.4283,0.084618
1103.2920,0.082788
1105.1557,0.080931
1107.0193,0.079102
1108.8830,0.077257
1110.7467,0.075473
1112.6103,0.073763
1114.4740,0.072001
1116.3377,0.070230
1118.2014,0.068501
1120.0650,0.066683
1121.9287,0.064950
1123.7924,0.063299
1125.6560,0.061657
1127.5197,0.059996
1129.3834,0.058384
1131.2470,0.056745
1133.1107,0.055148
1134.9744,0.053610
1136.8380,0.052042
1138.7017,0.050485
1140.5654,0.049095
1142.4290,0.047893
1144.2927,0.046838
1146.1564,0.045946
1148.0201,0.045253
1149.8837,0.044621
1151.7474,0.044120
1153.6111,0.043720
1155.4747,0.043226
1157.3384,0.042621
1159.2021,0.042083
1161.0657,0.041605
1162.9294,0.041054
1164.7931,0.040513
1166.6567,0.039919
1168.5204,0.039353
1170.3841,0.038731
1172.2477,0.037961
1174.1114,0.037110
1175.9751,0.036321
1177.8388,0.035729
1179.7024,0.035265
1181.5661,0.035002
1183.4298,0.034986
1185.2934,0.035025
1187.1571,0.035255
1189.0208,0.035542
1190.8844,0.035791
1192.7481,0.036106
1194.6118,0.036465
1196.4754,0.036982
1198.3391,0.037578
1200.2028,0.038121
1202.0665,0.038599
1203.9301,0.039127
1205.7938,0.039616
1207.6575,0.039896
1209.5211,0.040073
1211.3848,0.040286
1213.2485,0.040566
1215.1121,0.040920
1216.9758,0.041424
1218.8395,0.041958
1220.7031,0.042506
1222.5668,0.043230
1224.4305,0.044001
1226.2941,0.044795
1228.1578,0.045586
1230.0215,0.046367
1231.8852,0.047102
1233.7488,0.047744
1235.6125,0.048312
1237.4762,0.048879
1239.3398,0.049228
1241.2035,0.049481
1243.0672,0.049662
1244.9308,0.049744
1246.7945,0.049640
1248.6582,0.049256
1250.5218,0.048912
1252.3855,0.048658
1254.2492,0.048369
1256.1129,0.048150
1257.9765,0.047918
1259.8402,0.047786
1261.7039,0.047724
1263.5675,0.047662
1265.4312,0.047692
1267.2949,0.047742
1269.1585,0.047871
1271.0222,0.048171
1272.8859,0.048306
1274.7495,0.048429
1276.6132,0.048684
1278.4769,0.049088
1280.3405,0.049591
1282.2042,0.049979
1284.0679,0.050359
1285.9316,0.050820
1287.7952,0.051336
1289.6589,0.051873
1291.5226,0.052481
1293.3862,0.053105
1295.2499,0.053812
1297.1136,0.054519
1298.9772,0.055117
1300.8409,0.055648
1302.7046,0.056146
1304.5682,0.056609
1306.4319,0.056908
1308.2956,0.057140
1310.1592,0.057498
1312.0229,0.057798
1313.8866,0.057968
1315.7503,0.058011
1317.6139,0.058122
1319.4776,0.058263
1321.3413,0.058131
1323.2049,0.058038
1325.0686,0.058164
1326.9323,0.058302
1328.7959,0.058448
1330.6596,0.058765
1332.5233,0.059208
1334.3869,0.059532
1336.2506,0.059877
1338.1143,0.060645
1339.9780,0.061577
1341.8416,0.061814
1343.7053,0.061734
1345.5690,0.061927
1347.4326,0.062122
1349.2963,0.062221
1351.1600,0.062141
1353.0236,0.061969
1354.8873,0.061848
1356.7510,0.061774
1358.6146,0.061558
1360.4783,0.061612
1362.3420,0.062526
1364.2056,0.063257
1366.0693,0.063351
1367.9330,0.063817
1369.7967,0.064381
1371.6603,0.064711
1373.5240,0.065615
1375.3877,0.066686
1377.2513,0.066949
1379.1150,0.067307
1380.9787,0.067758
1382.8423,0.068006
1384.7060,0.068295
1386.5697,0.069289
1388.4333,0.070446
1390.2970,0.070477
1392.1607,0.070576
1394.0244,0.071584
1395.8880,0.072551
1397.7517,0.072761
1399.6154,0.073307
1401.4790,0.073015
1403.3427,0.072711
1405.2064,0.072846
1407.0700,0.072134
1408.9337,0.071202
1410.7974,0.070482
1412.6610,0.069471
1414.5247,0.067952
1416.3884,0.066574
1418.2520,0.066409
1420.1157,0.066216
1421.9794,0.064658
1423.8431,0.063736
1425.7067,0.063185
1427.5704,0.062557
1429.4341,0.062896
1431.2977,0.063212
1433.1614,0.062972
1435.0251,0.063651
1436.8887,0.065842
1438.7524,0.066239
1440.6161,0.065687
1442.4797,0.065881
1444.3434,0.065832
1446.2071,0.065894
1448.0707,0.066453
1449.9344,0.066360
1451.7981,0.065310
1453.6618,0.064113
1455.5254,0.063893
1457.3891,0.065463
1459.2528,0.064042
1461.1164,0.061684
1462.9801,0.060378
1464.8438,0.060268
1466.7074,0.059202
1468.5711,0.057319
1470.4348,0.055808
1472.2984,0.055605
1474.1621,0.055213
1476.0258,0.054074
1477.8895,0.053001
1479.7531,0.052183
1481.6168,0.051895
1483.4805,0.051412
1485.3441,0.051052
1487.2078,0.051641
1489.0715,0.053292
1490.9351,0.054684
1492.7988,0.054505
1494.6625,0.054781
1496.5261,0.056966
1498.3898,0.059120
1500.2535,0.059910
1502.1171,0.059711
1503.9808,0.059877
1505.8445,0.063793
1507.7082,0.069709
1509.5718,0.070348
1511.4355,0.071045
1513.2992,0.072409
1515.1628,0.073829
1517.0265,0.075870
1518.8902,0.076739
1520.7538,0.078777
1522.6175,0.081738
1524.4812,0.082100
1526.3448,0.083697
1528.2085,0.085034
1530.0722,0.085430
1531.9359,0.086690
1533.7995,0.089498
1535.6632,0.089327
1537.5269,0.088436
1539.3905,0.091749
1541.2542,0.095352
1543.1179,0.095135
1544.9815,0.095189
1546.8452,0.094532
1548.7089,0.093891
1550.5725,0.093659
1552.4362,0.092340
1554.2999,0.090889
1556.1635,0.089416
1558.0272,0.090295
1559.8909,0.092927
1561.7546,0.089593
1563.6182,0.086877
1565.4819,0.085234
1567.3456,0.083745
1569.2092,0.083224
1571.0729,0.082180
1572.9366,0.079792
1574.8002,0.078871
1576.6639,0.079692
1578.5276,0.078704
1580.3912,0.077164
1582.2549,0.076621
1584.1186,0.076348
1585.9822,0.076089
1587.8459,0.075811
1589.7096,0.076007
1591.5733,0.076426
1593.4369,0.077149
1595.3006,0.078080
1597.1643,0.078882
1599.0279,0.079714
1600.8916,0.080979
1602.7553,0.082417
1604.6189,0.083856
1606.4826,0.085367
1608.3463,0.087602
1610.2099,0.089524
1612.0736,0.090880
1613.9373,0.092217
1615.8010,0.095351
1617.6646,0.099479
1619.5283,0.100187
1621.3920,0.100698
1623.2556,0.103356
1625.1193,0.105219
1626.9830,0.105942
1628.8466,0.107236
1630.7103,0.107259
1632.5740,0.106194
1634.4376,0.106669
1636.3013,0.109096
1638.1650,0.108436
1640.0286,0.106610
1641.8923,0.104823
1643.7560,0.102854
1645.6197,0.102357
1647.4833,0.102593
1649.3470,0.100284
1651.2107,0.097478
1653.0743,0.098723
1654.9380,0.098162
1656.8017,0.094367
1658.6653,0.091218
1660.5290,0.088858
1662.3927,0.086989
1664.2563,0.084678
1666.1200,0.081210
1667.9837,0.078324
1669.8474,0.076413
1671.7110,0.073643
1673.5747,0.070467
1675.4384,0.067888
1677.3020,0.064757
1679.1657,0.061412
1681.0294,0.058135
1682.8930,0.055008
1684.7567,0.052333
1686.6204,0.048664
1688.4840,0.044950
1690.3477,0.041383
1692.2114,0.037841
1694.0750,0.034601
1695.9387,0.031434
1697.8024,0.028352
1699.6661,0.025411
1701.5297,0.023443
1703.3934,0.021515
1705.2571,0.019300
1707.1207,0.017440
1708.9844,0.016112
1710.8481,0.014722
1712.7117,0.013439
1714.5754,0.012489
1716.4391,0.011897
1718.3027,0.011447
1720.1664,0.011087
1722.0301,0.010228
1723.8937,0.009736
1725.7574,0.009330
1727.6211,0.008790
1729.4848,0.008284
1731.3484,0.008043
1733.2121,0.007689
1735.0758,0.007834
1736.9394,0.007511
1738.8031,0.007101
1740.6668,0.007082
1742.5304,0.006827
1744.3941,0.006365
1746.2578,0.005945
1748.1214,0.005542
1749.9851,0.005626
1751.8488,0.005648
1753.7125,0.005322
1755.5761,0.004870
1757.4398,0.004809
1759.3035,0.004609
1761.1671,0.004413
1763.0308,0.004425
1764.8945,0.004417
1766.7581,0.004245
1768.6218,0.004104
1770.4855,0.003752
1772.3491,0.003875
1774.2128,0.004181
1776.0765,0.004025
1777.9401,0.003852
1779.8038,0.003928
1781.6675,0.003866
1783.5312,0.003639
1785.3948,0.003686
1787.2585,0.003742
1789.1222,0.003469
1790.9858,0.003318
1792.8495,0.003540
1794.7132,0.003721
1796.5768,0.003460
1798.4405,0.003305
1800.3042,0.003515
1802.1678,0.003482
1804.0315,0.003137
1805.8952,0.003128
1807.7589,0.003172
1809.6225,0.003226
1811.4862,0.003370
1813.3499,0.003317
1815.2135,0.002890
1817.0772,0.002675
1818.9409,0.002762
1820.8045,0.002953
1822.6682,0.002981
1824.5319,0.002932
1826.3955,0.003064
1828.2592,0.003209
1830.1229,0.003429
1831.9865,0.003336
1833.8502,0.002974
1835.7139,0.002868
1837.5776,0.002812
1839.4412,0.003056
1841.3049,0.003044
1843.1686,0.002900
1845.0322,0.003184
1846.8959,0.003184
1848.7596,0.003126
1850.6232,0.003188
1852.4869,0.003014
1854.3506,0.003039
1856.2142,0.003045
1858.0779,0.002974
1859.9416,0.003163
1861.8052,0.003166
1863.6689,0.002604
1865.5326,0.002456
1867.3963,0.002549
1869.2599,0.002956
1871.1236,0.003395
1872.9873,0.002890
1874.8509,0.002598
1876.7146,0.002923
1878.5783,0.003169
1880.4419,0.003065
1882.3056,0.002882
1884.1693,0.002953
1886.0329,0.003038
1887.8966,0.003023
1889.7603,0.002916
1891.6240,0.002812
1893.4876,0.002903
1895.3513,0.003205
1897.2150,0.003194
1899.0786,0.002702
1900.9423,0.002421
1902.8060,0.002900
1904.6696,0.003370
1906.5333,0.003734
1908.3970,0.003364
1910.2606,0.002881
1912.1243,0.003082
1913.9880,0.003173
1915.8516,0.002785
1917.7153,0.002940
1919.5790,0.003757
1921.4427,0.003503
1923.3063,0.002850
1925.1700,0.003094
1927.0337,0.003520
1928.8973,0.003342
1930.7610,0.002952
1932.6247,0.002915
1934.4883,0.002678
1936.3520,0.002637
1938.2157,0.002698
1940.0793,0.002358
1941.9430,0.002265
1943.8067,0.002870
1945.6704,0.003404
1947.5340,0.003698
1949.3977,0.003908
1951.2614,0.004135
1953.1250,0.003969
1954.9887,0.004137
1956.8524,0.004049
1958.7160,0.003568
1960.5797,0.003250
1962.4434,0.003743
1964.3070,0.003785
1966.1707,0.003168
1968.0344,0.002710
1969.8980,0.003854
1971.7617,0.004923
1973.6254,0.004344
1975.4891,0.004387
1977.3527,0.005792
1979.2164,0.006865
1981.0801,0.006726
1982.9437,0.006332
1984.8074,0.006205
1986.6711,0.005655
1988.5347,0.004627
1990.3984,0.003907
1992.2621,0.004126
1994.1257,0.004665
1995.9894,0.004957
1997.8531,0.004554
1999.7167,0.004926
2001.5804,0.004778
2003.4441,0.003424
2005.3078,0.002997
2007.1714,0.003900
2009.0351,0.003869
2010.8988,0.003597
2012.7624,0.004740
2014.6261,0.006116
2016.4898,0.005880
2018.3534,0.005927
2020.2171,0.005958
2022.0808,0.005633
2023.9444,0.005793
2025.8081,0.005468
2027.6718,0.005043
2029.5355,0.005673
2031.3991,0.006525
2033.2628,0.007275
2035.1265,0.008034
2036.9901,0.007840
2038.8538,0.007034
2040.7175,0.007827
2042.5811,0.009221
2044.4448,0.009284
2046.3085,0.009298
2048.1721,0.010714
2050.0358,0.012010
2051.8995,0.011184
2053.7631,0.009368
2055.6268,0.008895
2057.4905,0.009132
2059.3542,0.009111
2061.2178,0.009199
2063.0815,0.008813
2064.9452,0.008135
2066.8088,0.008831
2068.6725,0.009731
2070.5362,0.009525
2072.3998,0.008749
2074.2635,0.008540
2076.1272,0.008675
2077.9908,0.008173
2079.8545,0.007649
2081.7182,0.007165
2083.5819,0.006562
2085.4455,0.006819
2087.3092,0.007228
2089.1729,0.006572
2091.0365,0.005598
2092.9002,0.005097
2094.7639,0.005487
2096.6275,0.006240
2098.4912,0.006289
2100.3549,0.005945
2102.2185,0.006233
2104.0822,0.006587
2105.9459,0.006761
2107.8095,0.006687
2109.6732,0.006346
2111.5369,0.006505
2113.4006,0.006422
2115.2642,0.005913
2117.1279,0.005787
2118.9916,0.006030
2120.8552,0.005817
2122.7189,0.005253
2124.5826,0.005175
2126.4462,0.005280
2128.3099,0.004782
2130.1736,0.004254
2132.0372,0.004222
2133.9009,0.004747
2135.7646,0.005518
2137.6282,0.006002
2139.4919,0.005676
2141.3556,0.005291
2143.2193,0.005684
2145.0829,0.006189
2146.9466,0.006815
2148.8103,0.007076
2150.6739,0.006571
2152.5376,0.006111
2154.4013,0.005747
2156.2649,0.005650
2158.1286,0.007236
2159.9923,0.010012
2161.8559,0.010498
2163.7196,0.009873
2165.5833,0.009576
2167.4470,0.010111
2169.3106,0.009572
2171.1743,0.007787
2173.0380,0.008056
2174.9016,0.008460
2176.7653,0.008417
2178.6290,0.008709
2180.4926,0.008235
2182.3563,0.008341
2184.2200,0.008678
2186.0836,0.008729
2187.9473,0.008433
2189.8110,0.007957
2191.6746,0.007843
2193.5383,0.008190
2195.4020,0.008868
2197.2657,0.009116
2199.1293,0.008393
2200.9930,0.007151
2202.8567,0.006384
2204.7203,0.006983
2206.5840,0.008033
2208.4477,0.008548
2210.3113,0.008471
2212.1750,0.007905
2214.0387,0.008325
2215.9023,0.008769
2217.7660,0.007981
2219.6297,0.008039
2221.4934,0.008818
2223.3570,0.008366
2225.2207,0.007535
2227.0844,0.007171
2228.9480,0.007570
2230.8117,0.008263
2232.6754,0.007993
2234.5390,0.007393
2236.4027,0.007481
2238.2664,0.007773
2240.1300,0.007869
2241.9937,0.008019
2243.8574,0.007864
2245.7210,0.007271
2247.5847,0.006876
2249.4484,0.007081
2251.3121,0.007595
2253.1757,0.007696
2255.0394,0.007298
2256.9031,0.007163
2258.7667,0.007267
2260.6304,0.007338
2262.4941,0.007381
2264.3577,0.007184
2266.2214,0.007118
2268.0851,0.007644
2269.9487,0.007813
2271.8124,0.007378
2273.6761,0.007259
2275.5397,0.007629
2277.4034,0.007993
2279.2671,0.008016
2281.1308,0.008006
2282.9944,0.007829
2284.8581,0.007641
2286.7218,0.007700
2288.5854,0.007644
2290.4491,0.007430
2292.3128,0.007166
2294.1764,0.006988
2296.0401,0.007057
2297.9038,0.007279
2299.7674,0.007298
2301.6311,0.006843
2303.4948,0.006414
2305.3585,0.006580
2307.2221,0.007029
2309.0858,0.007081
2310.9495,0.006572
2312.8131,0.006417
2314.6768,0.006979
2316.5405,0.007400
2318.4041,0.007338
2320.2678,0.007440
2322.1315,0.007897
2323.9951,0.007937
2325.8588,0.006888
2327.7225,0.005436
2329.5861,0.005126
2331.4498,0.005710
2333.3135,0.005946
2335.1772,0.006023
2337.0408,0.006117
2338.9045,0.005766
2340.7682,0.005733
2342.6318,0.006353
2344.4955,0.006271
2346.3592,0.005781
2348.2228,0.005590
2350.0865,0.004892
2351.9502,0.004180
2353.8138,0.004978
2355.6775,0.006156
2357.5412,0.006055
2359.4049,0.005139
2361.2685,0.005164
2363.1322,0.006148
2364.9959,0.006688
2366.8595,0.006476
2368.7232,0.006189
2370.5869,0.005718
2372.4505,0.005399
2374.3142,0.005568
2376.1779,0.005852
2378.0415,0.005788
2379.9052,0.005538
2381.7689,0.005485
2383.6325,0.005386
2385.4962,0.005160
2387.3599,0.005109
2389.2236,0.005277
2391.0872,0.005425
2392.9509,0.005422
2394.8146,0.005365
2396.6782,0.005359
2398.5419,0.005259
2400.4056,0.005253
2402.2692,0.005332
2404.1329,0.005570
2405.9966,0.005848
2407.8602,0.005723
2409.7239,0.005558
2411.5876,0.005589
2413.4512,0.005690
2415.3149,0.005698
2417.1786,0.005392
2419.0423,0.005319
2420.9059,0.005690
2422.7696,0.005866
2424.6333,0.005567
2426.4969,0.005580
2428.3606,0.006024
2430.2243,0.006118
2432.0879,0.006245
2433.9516,0.006460
2435.8153,0.006436
2437.6789,0.006323
2439.5426,0.006289
2441.4063,0.006327
2443.2700,0.006394
2445.1336,0.006597
2446.9973,0.006648
2448.8610,0.006437
2450.7246,0.006183
2452.5883,0.006142
2454.4520,0.006431
2456.3156,0.006657
2458.1793,0.006551
2460.0430,0.006526
2461.9066,0.006432
2463.7703,0.006228
2465.6340,0.006293
2467.4976,0.006754
2469.3613,0.006856
2471.2250,0.006543
2473.0887,0.006299
2474.9523,0.006230
2476.8160,0.006447
2478.6797,0.006403
2480.5433,0.006241
2482.4070,0.006525
2484.2707,0.006534
2486.1343,0.006408
2487.9980,0.006810
2489.8617,0.007039
2491.7253,0.006860
2493.5890,0.006435
2495.4527,0.006400
2497.3164,0.006610
2499.1800,0.006804
2501.0437,0.006901
2502.9074,0.007025
2504.7710,0.006889
2506.6347,0.006770
2508.4984,0.006799
2510.3620,0.006611
2512.2257,0.006399
2514.0894,0.006558
2515.9530,0.006342
2517.8167,0.006282
2519.6804,0.006853
2521.5440,0.007036
2523.4077,0.006897
2525.2714,0.006800
2527.1351,0.006898
2528.9987,0.007130
2530.8624,0.007215
2532.7261,0.006977
2534.5897,0.006828
2536.4534,0.007241
2538.3171,0.007216
2540.1807,0.006949
2542.0444,0.007147
2543.9081,0.007543
2545.7717,0.007388
2547.6354,0.007179
2549.4991,0.007201
2551.3627,0.007149
2553.2264,0.007493
2555.0901,0.007971
2556.9538,0.007820
2558.8174,0.007437
2560.6811,0.007549
2562.5448,0.007781
2564.4084,0.007924
2566.2721,0.007963
2568.1358,0.007951
2569.9994,0.007825
2571.8631,0.007909
2573.7268,0.007828
2575.5904,0.007758
2577.4541,0.008052
2579.3178,0.007922
2581.1815,0.007882
2583.0451,0.008285
2584.9088,0.008397
2586.7725,0.008541
2588.6361,0.008705
2590.4998,0.008624
2592.3635,0.008548
2594.2271,0.008580
2596.0908,0.008481
2597.9545,0.008753
2599.8181,0.009137
2601.6818,0.009065
2603.5455,0.009128
2605.4091,0.009342
2607.2728,0.009165
2609.1365,0.008956
2611.0002,0.009149
2612.8638,0.009483
2614.7275,0.009604
2616.5912,0.009467
2618.4548,0.009347
2620.3185,0.009383
2622.1822,0.009677
2624.0458,0.009841
2625.9095,0.009753
2627.7732,0.009663
2629.6368,0.009932
2631.5005,0.010088
2633.3642,0.010325
2635.2279,0.010456
2637.0915,0.010425
2638.9552,0.010334
2640.8189,0.010269
2642.6825,0.010355
2644.5462,0.010422
2646.4099,0.010540
2648.2735,0.010693
2650.1372,0.010718
2652.0009,0.010680
2653.8645,0.010729
2655.7282,0.010759
2657.5919,0.010882
2659.4555,0.010934
2661.3192,0.010801
2663.1829,0.010601
2665.0466,0.010556
2666.9102,0.010609
2668.7739,0.010650
2670.6376,0.010777
2672.5012,0.010963
2674.3649,0.011086
2676.2286,0.011147
2678.0922,0.011086
2679.9559,0.011132
2681.8196,0.011259
2683.6832,0.011407
2685.5469,0.011631
2687.4106,0.011676
2689.2742,0.011685
2691.1379,0.011764
2693.0016,0.011846
2694.8653,0.011961
2696.7289,0.012156
2698.5926,0.012378
2700.4563,0.012423
2702.3199,0.012367
2704.1836,0.012544
2706.0473,0.012657
2707.9109,0.012626
2709.7746,0.012868
2711.6383,0.013020
2713.5019,0.013014
2715.3656,0.013184
2717.2293,0.013362
2719.0930,0.013577
2720.9566,0.013891
2722.8203,0.014128
2724.6840,0.014111
2726.5476,0.013954
2728.4113,0.013903
2730.2750,0.014083
2732.1386,0.014434
2734.0023,0.014591
2735.8660,0.014724
2737.7296,0.014875
2739.5933,0.014999
2741.4570,0.015110
2743.3206,0.015391
2745.1843,0.015634
2747.0480,0.015582
2748.9117,0.015565
2750.7753,0.015814
2752.6390,0.016094
2754.5027,0.016326
2756.3663,0.016309
2758.2300,0.016486
2760.0937,0.016596
2761.9573,0.016484
2763.8210,0.016653
2765.6847,0.017086
2767.5483,0.017368
2769.4120,0.017388
2771.2757,0.017578
2773.1394,0.017921
2775.0030,0.018152
2776.8667,0.018308
2778.7304,0.018416
2780.5940,0.018516
2782.4577,0.018500
2784.3214,0.018639
2786.1850,0.019060
2788.0487,0.019575
2789.9124,0.019759
2791.7760,0.019773
2793.6397,0.019793
2795.5034,0.020045
2797.3670,0.020413
2799.2307,0.020663
2801.0944,0.020922
2802.9581,0.020968
2804.8217,0.020964
2806.6854,0.021255
2808.5491,0.021505
2810.4127,0.021741
2812.2764,0.021928
2814.1401,0.021908
2816.0037,0.022134
2817.8674,0.022711
2819.7311,0.023042
2821.5947,0.022973
2823.4584,0.023156
2825.3221,0.023526
2827.1857,0.023763
2829.0494,0.023885
2830.9131,0.023934
2832.7768,0.024214
2834.6404,0.024549
2836.5041,0.024945
2838.3678,0.025110
2840.2314,0.025317
2842.0951,0.025834
2843.9588,0.026470
2845.8224,0.026703
2847.6861,0.027028
2849.5498,0.027607
2851.4134,0.028112
2853.2771,0.028432
2855.1408,0.028844
2857.0045,0.028754
2858.8681,0.028784
2860.7318,0.029183
2862.5955,0.029569
2864.4591,0.029866
2866.3228,0.030217
2868.1865,0.030819
2870.0501,0.031373
2871.9138,0.031536
2873.7775,0.031622
2875.6411,0.031718
2877.5048,0.031764
2879.3685,0.031894
2881.2321,0.032143
2883.0958,0.032294
2884.9595,0.032503
2886.8232,0.032656
2888.6868,0.032592
2890.5505,0.032448
2892.4142,0.032560
2894.2778,0.033075
2896.1415,0.033523
2898.0052,0.033641
2899.8688,0.034043
2901.7325,0.034399
2903.5962,0.034600
2905.4598,0.034897
2907.3235,0.035455
2909.1872,0.035847
2911.0509,0.036125
2912.9145,0.036628
2914.7782,0.037255
2916.6419,0.037645
2918.5055,0.038083
2920.3692,0.038552
2922.2329,0.039026
2924.0965,0.039436
2925.9602,0.039833
2927.8239,0.040166
2929.6875,0.040545
2931.5512,0.040427
2933.4149,0.040144
2935.2785,0.040221
2937.1422,0.040238
2939.0059,0.040128
2940.8696,0.040251
2942.7332,0.040118
2944.5969,0.040145
2946.4606,0.040182
2948.3242,0.040184
2950.1879,0.040297
2952.0516,0.040796
2953.9152,0.040968
2955.7789,0.040930
2957.6426,0.040883
2959.5062,0.041033
2961.3699,0.041233
2963.2336,0.041381
2965.0972,0.041363
2966.9609,0.041261
2968.8246,0.041147
2970.6883,0.041182
2972.5519,0.041070
2974.4156,0.040753
2976.2793,0.040761
2978.1429,0.040914
2980.0066,0.040509
2981.8703,0.040321
2983.7339,0.040375
2985.5976,0.040302
2987.4613,0.040192
2989.3249,0.040118
2991.1886,0.040117
2993.0523,0.040283
2994.9160,0.040237
2996.7796,0.040176
2998.6433,0.040224
3000.5070,0.040339
3002.3706,0.040767
3004.2343,0.041421
3006.0980,0.041646
3007.9616,0.041568
3009.8253,0.041765
3011.6890,0.042116
3013.5526,0.042348
3015.4163,0.042638
3017.2800,0.043037
3019.1436,0.043341
3021.0073,0.043380
3022.8710,0.043766
3024.7347,0.044292
3026.5983,0.044733
3028.4620,0.044762
3030.3257,0.045254
3032.1893,0.045666
3034.0530,0.046144
3035.9167,0.046698
3037.7803,0.046617
3039.6440,0.046678
3041.5077,0.047098
3043.3713,0.047523
3045.2350,0.048102
3047.0987,0.048366
3048.9624,0.048561
3050.8260,0.048835
3052.6897,0.049264
3054.5534,0.049597
3056.4170,0.049790
3058.2807,0.050238
3060.1444,0.050601
3062.0080,0.050850
3063.8717,0.051110
3065.7354,0.051239
3067.5990,0.051407
3069.4627,0.051437
3071.3264,0.051774
3073.1900,0.052265
3075.0537,0.052918
3076.9174,0.053399
3078.7811,0.053376
3080.6447,0.052934
3082.5084,0.052772
3084.3721,0.052473
3086.2357,0.052556
3088.0994,0.053306
3089.9631,0.053501
3091.8267,0.053453
3093.6904,0.053802
3095.5541,0.053863
3097.4177,0.054059
3099.2814,0.054075
3101.1451,0.054314
3103.0087,0.054765
3104.8724,0.055211
3106.7361,0.055397
3108.5998,0.055409
3110.4634,0.055357
3112.3271,0.055535
3114.1908,0.055793
3116.0544,0.056101
3117.9181,0.056258
3119.7818,0.056515
3121.6454,0.056547
3123.5091,0.056673
3125.3728,0.056934
3127.2364,0.057314
3129.1001,0.057525
3130.9638,0.058099
3132.8275,0.058619
3134.6911,0.059160
3136.5548,0.059481
3138.4185,0.059381
3140.2821,0.059508
3142.1458,0.059868
3144.0095,0.060055
3145.8731,0.060546
3147.7368,0.060970
3149.6005,0.061369
3151.4641,0.061657
3153.3278,0.062191
3155.1915,0.062580
3157.0551,0.062966
3158.9188,0.063545
3160.7825,0.063802
3162.6462,0.063959
3164.5098,0.064438
3166.3735,0.064559
3168.2372,0.064833
3170.1008,0.065158
3171.9645,0.065497
3173.8282,0.065855
3175.6918,0.066386
3177.5555,0.066473
3179.4192,0.066950
3181.2828,0.067381
3183.1465,0.067622
3185.0102,0.067844
3186.8739,0.067802
3188.7375,0.068368
3190.6012,0.068818
3192.4649,0.068877
3194.3285,0.069478
3196.1922,0.069480
3198.0559,0.069467
3199.9195,0.069629
3201.7832,0.069703
3203.6469,0.069945
3205.5105,0.070115
3207.3742,0.070014
3209.2379,0.070306
3211.1015,0.070754
3212.9652,0.070641
3214.8289,0.070595
3216.6926,0.070952
3218.5562,0.071122
3220.4199,0.071593
3222.2836,0.071809
3224.1472,0.071741
3226.0109,0.071451
3227.8746,0.071689
3229.7382,0.071771
3231.6019,0.071911
3233.4656,0.072321
3235.3292,0.072308
3237.1929,0.071694
3239.0566,0.072025
3240.9202,0.072357
3242.7839,0.072649
3244.6476,0.073021
3246.5113,0.073390
3248.3749,0.073299
3250.2386,0.073403
3252.1023,0.073661
3253.9659,0.073562
3255.8296,0.073356
3257.6933,0.073533
3259.5569,0.074149
3261.4206,0.074629
3263.2843,0.074025
3265.1479,0.073662
3267.0116,0.073753
3268.8753,0.074288
3270.7390,0.074651
3272.6026,0.074475
3274.4663,0.074124
3276.3300,0.074341
3278.1936,0.074611
3280.0573,0.074652
3281.9210,0.074308
3283.7846,0.074193
3285.6483,0.073683
3287.5120,0.073459
3289.3756,0.073478
3291.2393,0.073876
3293.1030,0.073902
3294.9666,0.073232
3296.8303,0.072700
3298.6940,0.072821
3300.5577,0.072580
3302.4213,0.072242
3304.2850,0.071775
3306.1487,0.071809
3308.0123,0.071669
3309.8760,0.071455
3311.7397,0.071521
3313.6033,0.071619
3315.4670,0.071423
3317.3307,0.071615
3319.1943,0.071601
3321.0580,0.070990
3322.9217,0.070589
3324.7854,0.070744
3326.6490,0.070611
3328.5127,0.070407
3330.3764,0.070487
3332.2400,0.070480
3334.1037,0.070239
3335.9674,0.069818
3337.8310,0.069455
3339.6947,0.069742
3341.5584,0.069654
3343.4220,0.069578
3345.2857,0.069152
3347.1494,0.068322
3349.0130,0.068346
3350.8767,0.068608
3352.7404,0.067888
3354.6041,0.068067
3356.4677,0.068328
3358.3314,0.067650
3360.1951,0.066879
3362.0587,0.067252
3363.9224,0.067619
3365.7861,0.067230
3367.6497,0.066477
3369.5134,0.066054
3371.3771,0.065981
3373.2407,0.066276
3375.1044,0.065671
3376.9681,0.065033
3378.8317,0.065242
3380.6954,0.065288
3382.5591,0.064710
3384.4228,0.064377
3386.2864,0.064378
3388.1501,0.064665
3390.0138,0.064320
3391.8774,0.063761
3393.7411,0.063425
3395.6048,0.063350
3397.4684,0.063193
3399.3321,0.062638
3401.1958,0.062256
3403.0594,0.062705
3404.9231,0.062779
3406.7868,0.062527
3408.6505,0.061235
3410.5141,0.060173
3412.3778,0.060259
3414.2415,0.060676
3416.1051,0.060112
3417.9688,0.059934
3419.8325,0.059722
3421.6961,0.058816
3423.5598,0.058118
3425.4235,0.058467
3427.2871,0.058219
3429.1508,0.057338
3431.0145,0.056674
3432.8781,0.056971
3434.7418,0.056958
3436.6055,0.056408
3438.4692,0.056365
3440.3328,0.056258
3442.1965,0.055204
3444.0602,0.054494
3445.9238,0.054120
3447.7875,0.053793
3449.6512,0.053755
3451.5148,0.053801
3453.3785,0.053001
3455.2422,0.051890
3457.1058,0.051321
3458.9695,0.051027
3460.8332,0.050886
3462.6969,0.050511
3464.5605,0.049469
3466.4242,0.049093
3468.2879,0.048872
3470.1515,0.048623
3472.0152,0.048561
3473.8789,0.048342
3475.7425,0.047094
3477.6062,0.046253
3479.4699,0.046036
3481.3335,0.046022
3483.1972,0.045733
3485.0609,0.044620
3486.9245,0.043560
3488.7882,0.043637
3490.6519,0.043193
3492.5156,0.042509
3494.3792,0.041996
3496.2429,0.041296
3498.1066,0.040794
3499.9702,0.039889
3501.8339,0.038551
3503.6976,0.039079
3505.5612,0.039292
3507.4249,0.038295
3509.2886,0.037606
3511.1522,0.037172
3513.0159,0.036650
3514.8796,0.035727
3516.7432,0.034643
3518.6069,0.034236
3520.4706,0.033966
3522.3343,0.033279
3524.1979,0.032372
3526.0616,0.032070
3527.9253,0.032458
3529.7889,0.032123
3531.6526,0.031054
3533.5163,0.030592
3535.3799,0.030352
3537.2436,0.029757
3539.1073,0.028640
3540.9709,0.027743
3542.8346,0.027272
3544.6983,0.026916
3546.5620,0.026599
3548.4256,0.025794
3550.2893,0.025057
3552.1530,0.024934
3554.0166,0.024739
3555.8803,0.023884
3557.7440,0.022793
3559.6076,0.022098
3561.4713,0.021399
3563.3350,0.020606
3565.1986,0.019756
3567.0623,0.020135
3568.9260,0.020548
3570.7896,0.019664
3572.6533,0.019117
3574.5170,0.018811
3576.3807,0.017605
3578.2443,0.016492
3580.1080,0.016212
3581.9717,0.015783
3583.8353,0.014790
3585.6990,0.014254
3587.5627,0.014362
3589.4263,0.013989
3591.2900,0.013013
3593.1537,0.011807
3595.0173,0.011518
3596.8810,0.012184
3598.7447,0.012161
3600.6084,0.011734
3602.4720,0.011676
3604.3357,0.011004
3606.1994,0.009607
3608.0630,0.008684
3609.9267,0.008293
3611.7904,0.008085
3613.6540,0.008102
3615.5177,0.007594
3617.3814,0.006561
3619.2450,0.005842
3621.1087,0.005794
3622.9724,0.005186
3624.8360,0.003996
3626.6997,0.003658
3628.5634,0.003883
3630.4271,0.003730
3632.2907,0.003114
3634.1544,0.002484
3636.0181,0.002094
3637.8817,0.001952
3639.7454,0.001614
3641.6091,0.000825
3643.4727,-0.000047
3645.3364,-0.000641
3647.2001,-0.000874
3649.0637,-0.001074
3650.9274,-0.001424
3652.7911,-0.001722
3654.6547,-0.002086
3656.5184,-0.002307
3658.3821,-0.002407
3660.2458,-0.002875
3662.1094,-0.003679
3663.9731,-0.004344
3665.8368,-0.004733
3667.7004,-0.005193
3669.5641,-0.005233
3671.4278,-0.004759
3673.2914,-0.004971
3675.1551,-0.006054
3677.0188,-0.006242
3678.8824,-0.005794
3680.7461,-0.006147
3682.6098,-0.006495
3684.4735,-0.006714
3686.3371,-0.007011
3688.2008,-0.007234
3690.0645,-0.006944
3691.9281,-0.006554
3693.7918,-0.006866
3695.6555,-0.006893
3697.5191,-0.006904
3699.3828,-0.007320
3701.2465,-0.007199
3703.1101,-0.006881
3704.9738,-0.006877
3706.8375,-0.007099
3708.7011,-0.007406
3710.5648,-0.007566
3712.4285,-0.007631
3714.2922,-0.007126
3716.1558,-0.007021
3718.0195,-0.007472
3719.8832,-0.007764
3721.7468,-0.007889
3723.6105,-0.007795
3725.4742,-0.007762
3727.3378,-0.007667
3729.2015,-0.007603
3731.0652,-0.007919
3732.9288,-0.007853
3734.7925,-0.007896
3736.6562,-0.008360
3738.5199,-0.008213
3740.3835,-0.007909
3742.2472,-0.007573
3744.1109,-0.007725
3745.9745,-0.008121
3747.8382,-0.007954
3749.7019,-0.008177
3751.5655,-0.008097
3753.4292,-0.007410
3755.2929,-0.007356
3757.1565,-0.007715
3759.0202,-0.007903
3760.8839,-0.007926
3762.7475,-0.007701
3764.6112,-0.007545
3766.4749,-0.007554
3768.3386,-0.007509
3770.2022,-0.007566
3772.0659,-0.007277
3773.9296,-0.007198
3775.7932,-0.007750
3777.6569,-0.008258
3779.5206,-0.008303
3781.3842,-0.008038
3783.2479,-0.007746
3785.1116,-0.007776
3786.9752,-0.007762
3788.8389,-0.007495
3790.7026,-0.007613
3792.5662,-0.007864
3794.4299,-0.007784
3796.2936,-0.007673
3798.1573,-0.007887
3800.0209,-0.008185
3801.8846,-0.008195
3803.7483,-0.007884
3805.6119,-0.008039
3807.4756,-0.008436
3809.3393,-0.008018
3811.2029,-0.007495
3813.0666,-0.007436
3814.9303,-0.007780
3816.7939,-0.008264
3818.6576,-0.007967
3820.5213,-0.007993
3822.3850,-0.008294
3824.2486,-0.007726
3826.1123,-0.007728
3827.9760,-0.007839
3829.8396,-0.007834
3831.7033,-0.008364
3833.5670,-0.008344
3835.4306,-0.007908
3837.2943,-0.007857
3839.1580,-0.007308
3841.0216,-0.006710
3842.8853,-0.007068
3844.7490,-0.007644
3846.6126,-0.008023
3848.4763,-0.008230
3850.3400,-0.008198
3852.2037,-0.008323
3854.0673,-0.008448
3855.9310,-0.008142
3857.7947,-0.008056
3859.6583,-0.008149
3861.5220,-0.008086
3863.3857,-0.007988
3865.2493,-0.007548
3867.1130,-0.007404
3868.9767,-0.008099
3870.8403,-0.008277
3872.7040,-0.007758
3874.5677,-0.007897
3876.4314,-0.007935
3878.2950,-0.008156
3880.1587,-0.008588
3882.0224,-0.008236
3883.8860,-0.007741
3885.7497,-0.008128
3887.6134,-0.008060
3889.4770,-0.007671
3891.3407,-0.008135
3893.2044,-0.008149
3895.0680,-0.007616
3896.9317,-0.007716
3898.7954,-0.007842
3900.6590,-0.007839
3902.5227,-0.007764
3904.3864,-0.007792
3906.2501,-0.007835
3908.1137,-0.007749
3909.9774,-0.007741
3911.8411,-0.007966
3913.7047,-0.007831
3915.5684,-0.007460
3917.4321,-0.007560
3919.2957,-0.007839
3921.1594,-0.007970
3923.0231,-0.008071
3924.8867,-0.008026
3926.7504,-0.008036
3928.6141,-0.007932
3930.4777,-0.007755
3932.3414,-0.007475
3934.2051,-0.007373
3936.0688,-0.007433
3937.9324,-0.007692
3939.7961,-0.007699
3941.6598,-0.007782
3943.5234,-0.007968
3945.3871,-0.007747
3947.2508,-0.007580
3949.1144,-0.007808
3950.9781,-0.007826
3952.8418,-0.007902
3954.7054,-0.007920
3956.5691,-0.007532
3958.4328,-0.007490
3960.2965,-0.008168
3962.1601,-0.008325
3964.0238,-0.007840
3965.8875,-0.007729
3967.7511,-0.007883
3969.6148,-0.007654
3971.4785,-0.007734
3973.3421,-0.007843
3975.2058,-0.007698
3977.0695,-0.007835
3978.9331,-0.008029
3980.7968,-0.007743
3982.6605,-0.007774
3984.5241,-0.007850
3986.3878,-0.007639
3988.2515,-0.007369
3990.1152,-0.007345
3991.9788,-0.007680
3993.8425,-0.007815
3995.7062,-0.007626
3997.5698,-0.007579
3999.4335,-0.007600
