Wavenumber,Intensity
650.4205,0.112969
652.2841,0.110059
654.1478,0.110923
656.0115,0.110592
657.8751,0.110592
659.7388,0.110320
661.6025,0.108370
663.4661,0.106467
665.3298,0.105099
667.1935,0.106267
669.0571,0.107465
670.9208,0.103629
672.7845,0.101635
674.6481,0.099642
676.5118,0.097995
678.3755,0.097201
680.2392,0.096768
682.1028,0.096271
683.9665,0.095856
685.8302,0.094299
687.6938,0.091612
689.5575,0.091138
691.4212,0.092788
693.2848,0.093634
695.1485,0.094338
697.0122,0.093988
698.8758,0.092739
700.7395,0.091937
702.6032,0.090254
704.4669,0.088213
706.3305,0.086569
708.1942,0.084742
710.0579,0.083392
711.9215,0.082337
713.7852,0.081217
715.6489,0.080394
717.5125,0.079777
719.3762,0.079651
721.2399,0.079548
723.1035,0.078183
724.9672,0.076149
726.8309,0.074625
728.6945,0.073869
730.5582,0.073797
732.4219,0.073744
734.2856,0.073728
736.1492,0.073593
738.0129,0.072406
739.8766,0.071763
741.7402,0.071903
743.6039,0.071458
745.4676,0.070718
747.3312,0.070081
749.1949,0.069457
751.0586,0.068336
752.9222,0.066938
754.7859,0.066259
756.6496,0.065840
758.5132,0.065203
760.3769,0.064414
762.2406,0.063649
764.1043,0.063411
765.9679,0.062983
767.8316,0.062159
769.6953,0.061380
771.5589,0.060654
773.4226,0.060265
775.2863,0.059956
777.1499,0.059401
779.0136,0.059169
780.8773,0.059104
782.7409,0.058565
784.6046,0.057986
786.4683,0.057527
788.3320,0.056728
790.1956,0.056164
792.0593,0.056057
793.9230,0.055796
795.7866,0.055388
797.6503,0.055006
799.5140,0.054511
801.3776,0.054086
803.2413,0.054003
805.1050,0.053708
806.9686,0.053380
808.8323,0.053469
810.6960,0.053044
812.5596,0.052291
814.4233,0.051979
816.2870,0.051540
818.1507,0.051022
820.0143,0.051082
821.8780,0.051189
823.7417,0.051211
825.6053,0.051159
827.4690,0.050952
829.3327,0.050752
831.1963,0.050556
833.0600,0.050103
834.9237,0.049489
836.7873,0.048998
838.6510,0.048582
840.5147,0.048103
842.3784,0.047658
844.2420,0.047377
846.1057,0.047268
847.9694,0.046948
849.8330,0.046471
851.6967,0.046140
853.5604,0.045782
855.4240,0.045434
857.2877,0.045329
859.1514,0.045309
861.0150,0.045136
862.8787,0.044997
864.7424,0.045176
866.6060,0.045350
868.4697,0.045270
870.3334,0.045180
872.1971,0.045448
874.0607,0.045928
875.9244,0.046099
877.7881,0.045988
879.6517,0.045864
881.5154,0.045755
883.3791,0.045711
885.2427,0.045591
887.1064,0.045508
888.9701,0.045587
890.8337,0.045644
892.6974,0.045480
894.5611,0.045148
896.4247,0.044983
898.2884,0.044979
900.1521,0.044851
902.0158,0.044632
903.8794,0.044427
905.7431,0.044293
907.6068,0.044377
909.4704,0.044675
911.3341,0.044801
913.1978,0.044986
915.0614,0.045378
916.9251,0.045833
918.7888,0.046346
920.6524,0.046889
922.5161,0.047182
924.3798,0.047240
926.2435,0.047376
928.1071,0.047484
929.9708,0.047630
931.8345,0.047854
933.6981,0.047967
935.5618,0.047990
937.4255,0.047950
939.2891,0.047811
941.1528,0.047613
943.0165,0.047621
944.8801,0.047751
946.7438,0.047901
948.6075,0.048197
950.4711,0.048540
952.3348,0.048804
954.1985,0.049207
956.0622,0.049682
957.9258,0.050124
959.7895,0.050480
961.6532,0.050794
963.5168,0.051294
965.3805,0.051806
967.2442,0.052309
969.1078,0.052686
970.9715,0.052875
972.8352,0.053159
974.6988,0.053495
976.5625,0.053715
978.4262,0.054046
980.2899,0.054378
982.1535,0.054619
984.0172,0.055085
985.8809,0.055590
987.7445,0.055990
989.6082,0.056379
991.4719,0.056764
993.3355,0.057188
995.1992,0.057771
997.0629,0.058487
998.9265,0.059158
1000.7902,0.059839
1002.6539,0.060657
1004.5175,0.061587
1006.3812,0.062699
1008.2449,0.063771
1010.1086,0.064627
1011.9722,0.065285
1013.8359,0.066043
1015.6996,0.066905
1017.5632,0.067545
1019.4269,0.068049
1021.2906,0.068658
1023.1542,0.069241
1025.0179,0.069642
1026.8816,0.070070
1028.7452,0.070513
1030.6089,0.070757
1032.4726,0.070864
1034.3362,0.070999
1036.1999,0.071333
1038.0636,0.071848
1039.9273,0.072497
1041.7909,0.073248
1043.6546,0.073911
1045.5183,0.074433
1047.3819,0.074831
1049.2456,0.075187
1051.1093,0.075549
1052.9729,0.075777
1054.8366,0.075871
1056.7003,0.075947
1058.5639,0.075991
1060.4276,0.076000
1062.2913,0.075998
1064.1550,0.075944
1066.0186,0.075951
1067.8823,0.076054
1069.7460,0.076121
1071.6096,0.076028
1073.4733,0.075810
1075.3370,0.075593
1077.2006,0.075307
1079.0643,0.074772
1080.9280,0.074126
1082.7916,0.073331
1084.6553,0.072402
1086.5190,0.071513
1088.3826,0.070703
1090.2463,0.069996
1092.1100,0.069355
1093.9737,0.068772
1095.8373,0.068298
1097.7010,0.067886
1099.5647,0.067539
1101.4283,0.067247
1103.2920,0.066792
1105.1557,0.066371
1107.0193,0.066143
1108.8830,0.065853
1110.7467,0.065482
1112.6103,0.065278
1114.4740,0.065116
1116.3377,0.064795
1118.2014,0.064431
1120.0650,0.064085
1121.9287,0.063795
1123.7924,0.063412
1125.6560,0.062852
1127.5197,0.062227
1129.3834,0.061561
1131.2470,0.060864
1133.1107,0.060223
1134.9744,0.059569
1136.8380,0.059027
1138.7017,0.058713
1140.5654,0.058633
1142.4290,0.058786
1144.2927,0.059135
1146.1564,0.059569
1148.0201,0.060046
1149.8837,0.060569
1151.7474,0.061031
1153.6111,0.061266
1155.4747,0.061418
1157.3384,0.061641
1159.2021,0.061787
1161.0657,0.061847
1162.9294,0.061885
1164.7931,0.061916
1166.6567,0.061957
1168.5204,0.062002
1170.3841,0.061838
1172.2477,0.061305
1174.1114,0.060543
1175.9751,0.059669
1177.8388,0.058955
1179.7024,0.058605
1181.5661,0.058426
1183.4298,0.058459
1185.2934,0.058776
1187.1571,0.059215
1189.0208,0.059607
1190.8844,0.060060
1192.7481,0.060658
1194.6118,0.061344
1196.4754,0.062066
1198.3391,0.062852
1200.2028,0.063762
1202.0665,0.064719
1203.9301,0.065666
1205.7938,0.066530
1207.6575,0.067383
1209.5211,0.068177
1211.3848,0.069094
1213.2485,0.070117
1215.1121,0.071076
1216.9758,0.072073
1218.8395,0.073054
1220.7031,0.074003
1222.5668,0.074848
1224.4305,0.075586
1226.2941,0.076210
1228.1578,0.076669
1230.0215,0.077077
1231.8852,0.077362
1233.7488,0.077441
1235.6125,0.077414
1237.4762,0.077275
1239.3398,0.076974
1241.2035,0.076464
1243.0672,0.075888
1244.9308,0.075379
1246.7945,0.074729
1248.6582,0.074018
1250.5218,0.073366
1252.3855,0.072719
1254.2492,0.072107
1256.1129,0.071552
1257.9765,0.071070
1259.8402,0.070586
1261.7039,0.070186
1263.5675,0.069938
1265.4312,0.069746
1267.2949,0.069494
1269.1585,0.069275
1271.0222,0.069153
1272.8859,0.068994
1274.7495,0.068773
1276.6132,0.068646
1278.4769,0.068550
1280.3405,0.068494
1282.2042,0.068468
1284.0679,0.068339
1285.9316,0.068243
1287.7952,0.068234
1289.6589,0.068213
1291.5226,0.068057
1293.3862,0.067854
1295.2499,0.067820
1297.1136,0.067662
1298.9772,0.067434
1300.8409,0.067287
1302.7046,0.067144
1304.5682,0.066988
1306.4319,0.066793
1308.2956,0.066554
1310.1592,0.066298
1312.0229,0.066014
1313.8866,0.065691
1315.7503,0.065047
1317.6139,0.064616
1319.4776,0.064166
1321.3413,0.063462
1323.2049,0.062953
1325.0686,0.062619
1326.9323,0.062373
1328.7959,0.062299
1330.6596,0.062278
1332.5233,0.062183
1334.3869,0.061961
1336.2506,0.062002
1338.1143,0.062582
1339.9780,0.063119
1341.8416,0.062915
1343.7053,0.062519
1345.5690,0.062359
1347.4326,0.062487
1349.2963,0.062760
1351.1600,0.063001
1353.0236,0.063489
1354.8873,0.064069
1356.7510,0.064350
1358.6146,0.064658
1360.4783,0.065774
1362.3420,0.067808
1364.2056,0.068997
1366.0693,0.069136
1367.9330,0.069652
1369.7967,0.069875
1371.6603,0.070141
1373.5240,0.071902
1375.3877,0.073621
1377.2513,0.074263
1379.1150,0.075255
1380.9787,0.076136
1382.8423,0.076613
1384.7060,0.076925
1386.5697,0.078326
1388.4333,0.079054
1390.2970,0.077817
1392.1607,0.077146
1394.0244,0.077906
1395.8880,0.078365
1397.7517,0.078029
1399.6154,0.077883
1401.4790,0.076271
1403.3427,0.075219
1405.2064,0.074879
1407.0700,0.073619
1408.9337,0.072196
1410.7974,0.071283
1412.6610,0.070095
1414.5247,0.068482
1416.3884,0.067618
1418.2520,0.068866
1420.1157,0.069255
1421.9794,0.067384
1423.8431,0.066843
1425.7067,0.066453
1427.5704,0.066521
1429.4341,0.067906
1431.2977,0.068500
1433.1614,0.068371
1435.0251,0.070233
1436.8887,0.074314
1438.7524,0.074190
1440.6161,0.073113
1442.4797,0.073243
1444.3434,0.073106
1446.2071,0.073591
1448.0707,0.074538
1449.9344,0.073875
1451.7981,0.072160
1453.6618,0.070829
1455.5254,0.072148
1457.3891,0.076012
1459.2528,0.073172
1461.1164,0.069698
1462.9801,0.069041
1464.8438,0.070517
1466.7074,0.069335
1468.5711,0.066511
1470.4348,0.065140
1472.2984,0.066552
1474.1621,0.066844
1476.0258,0.066056
1477.8895,0.065654
1479.7531,0.065936
1481.6168,0.067455
1483.4805,0.068511
1485.3441,0.070131
1487.2078,0.073990
1489.0715,0.079778
1490.9351,0.083699
1492.7988,0.083466
1494.6625,0.085424
1496.5261,0.091666
1498.3898,0.095377
1500.2535,0.095614
1502.1171,0.094700
1503.9808,0.095369
1505.8445,0.103796
1507.7082,0.113139
1509.5718,0.110662
1511.4355,0.109369
1513.2992,0.109292
1515.1628,0.109497
1517.0265,0.110294
1518.8902,0.109613
1520.7538,0.111222
1522.6175,0.113214
1524.4812,0.112369
1526.3448,0.113089
1528.2085,0.112588
1530.0722,0.111186
1531.9359,0.111005
1533.7995,0.111999
1535.6632,0.109345
1537.5269,0.107192
1539.3905,0.109676
1541.2542,0.110984
1543.1179,0.107759
1544.9815,0.104369
1546.8452,0.100368
1548.7089,0.096811
1550.5725,0.093111
1552.4362,0.088853
1554.2999,0.084719
1556.1635,0.081200
1558.0272,0.081218
1559.8909,0.080146
1561.7546,0.074542
1563.6182,0.071227
1565.4819,0.069221
1567.3456,0.067612
1569.2092,0.067173
1571.0729,0.065486
1572.9366,0.063323
1574.8002,0.063477
1576.6639,0.064604
1578.5276,0.062991
1580.3912,0.061751
1582.2549,0.061623
1584.1186,0.061729
1585.9822,0.061994
1587.8459,0.062549
1589.7096,0.063173
1591.5733,0.064182
1593.4369,0.065654
1595.3006,0.067233
1597.1643,0.068658
1599.0279,0.070248
1600.8916,0.072377
1602.7553,0.074969
1604.6189,0.077529
1606.4826,0.080448
1608.3463,0.084209
1610.2099,0.087346
1612.0736,0.089715
1613.9373,0.092419
1615.8010,0.098144
1617.6646,0.103435
1619.5283,0.103588
1621.3920,0.105348
1623.2556,0.110065
1625.1193,0.112664
1626.9830,0.113763
1628.8466,0.114770
1630.7103,0.114127
1632.5740,0.113510
1634.4376,0.115686
1636.3013,0.118712
1638.1650,0.116862
1640.0286,0.114277
1641.8923,0.112162
1643.7560,0.110587
1645.6197,0.110358
1647.4833,0.109006
1649.3470,0.104805
1651.2107,0.101897
1653.0743,0.101088
1654.9380,0.095996
1656.8017,0.090543
1658.6653,0.085905
1660.5290,0.081838
1662.3927,0.078342
1664.2563,0.074636
1666.1200,0.071049
1667.9837,0.068347
1669.8474,0.065664
1671.7110,0.062751
1673.5747,0.060334
1675.4384,0.058191
1677.3020,0.055146
1679.1657,0.052260
1681.0294,0.049691
1682.8930,0.047607
1684.7567,0.045235
1686.6204,0.041958
1688.4840,0.039116
1690.3477,0.036311
1692.2114,0.033445
1694.0750,0.030852
1695.9387,0.027977
1697.8024,0.025304
1699.6661,0.023081
1701.5297,0.020818
1703.3934,0.019004
1705.2571,0.017698
1707.1207,0.016603
1708.9844,0.015532
1710.8481,0.014485
1712.7117,0.013815
1714.5754,0.013234
1716.4391,0.012637
1718.3027,0.012319
1720.1664,0.011850
1722.0301,0.011217
1723.8937,0.010999
1725.7574,0.010655
1727.6211,0.010266
1729.4848,0.009915
1731.3484,0.009687
1733.2121,0.009719
1735.0758,0.009868
1736.9394,0.009524
1738.8031,0.009319
1740.6668,0.009372
1742.5304,0.009177
1744.3941,0.008753
1746.2578,0.008164
1748.1214,0.007442
1749.9851,0.006708
1751.8488,0.005963
1753.7125,0.005325
1755.5761,0.004432
1757.4398,0.003606
1759.3035,0.003159
1761.1671,0.002557
1763.0308,0.002204
1764.8945,0.002197
1766.7581,0.001978
1768.6218,0.001759
1770.4855,0.001515
1772.3491,0.001304
1774.2128,0.001127
1776.0765,0.001146
1777.9401,0.001131
1779.8038,0.001138
1781.6675,0.001186
1783.5312,0.001074
1785.3948,0.000981
1787.2585,0.001127
1789.1222,0.001022
1790.9858,0.000803
1792.8495,0.000863
1794.7132,0.000769
1796.5768,0.000533
1798.4405,0.000433
1800.3042,0.000605
1802.1678,0.000803
1804.0315,0.000611
1805.8952,0.000506
1807.7589,0.000607
1809.6225,0.000531
1811.4862,0.000336
1813.3499,0.000488
1815.2135,0.000446
1817.0772,0.000224
1818.9409,0.000404
1820.8045,0.000682
1822.6682,0.000680
1824.5319,0.000659
1826.3955,0.000868
1828.2592,0.000706
1830.1229,0.000497
1831.9865,0.000620
1833.8502,0.000757
1835.7139,0.000907
1837.5776,0.000867
1839.4412,0.000865
1841.3049,0.000773
1843.1686,0.000415
1845.0322,0.000309
1846.8959,0.000866
1848.7596,0.001066
1850.6232,0.000743
1852.4869,0.000802
1854.3506,0.001070
1856.2142,0.001043
1858.0779,0.000949
1859.9416,0.001103
1861.8052,0.001265
1863.6689,0.001173
1865.5326,0.001392
1867.3963,0.001394
1869.2599,0.001198
1871.1236,0.001373
1872.9873,0.001418
1874.8509,0.001323
1876.7146,0.001255
1878.5783,0.001258
1880.4419,0.001386
1882.3056,0.001539
1884.1693,0.001501
1886.0329,0.001568
1887.8966,0.001925
1889.7603,0.002073
1891.6240,0.002120
1893.4876,0.002165
1895.3513,0.001984
1897.2150,0.001965
1899.0786,0.002048
1900.9423,0.002118
1902.8060,0.002045
1904.6696,0.001654
1906.5333,0.001488
1908.3970,0.001605
1910.2606,0.001780
1912.1243,0.001824
1913.9880,0.001675
1915.8516,0.002058
1917.7153,0.002645
1919.5790,0.002399
1921.4427,0.002176
1923.3063,0.001927
1925.1700,0.001597
1927.0337,0.001827
1928.8973,0.002217
1930.7610,0.002653
1932.6247,0.002747
1934.4883,0.002069
1936.3520,0.001763
1938.2157,0.001997
1940.0793,0.002302
1941.9430,0.002415
1943.8067,0.002737
1945.6704,0.002811
1947.5340,0.002388
1949.3977,0.002098
1951.2614,0.002666
1953.1250,0.003223
1954.9887,0.002985
1956.8524,0.002444
1958.7160,0.001924
1960.5797,0.002320
1962.4434,0.003364
1964.3070,0.003642
1966.1707,0.003272
1968.0344,0.002509
1969.8980,0.002210
1971.7617,0.002588
1973.6254,0.003083
1975.4891,0.003759
1977.3527,0.005494
1979.2164,0.006057
1981.0801,0.004798
1982.9437,0.004105
1984.8074,0.003603
1986.6711,0.003346
1988.5347,0.003917
1990.3984,0.004128
1992.2621,0.004716
1994.1257,0.004564
1995.9894,0.003219
1997.8531,0.003450
1999.7167,0.004135
2001.5804,0.003706
2003.4441,0.002683
2005.3078,0.003176
2007.1714,0.005016
2009.0351,0.004997
2010.8988,0.003838
2012.7624,0.003847
2014.6261,0.003699
2016.4898,0.003703
2018.3534,0.004484
2020.2171,0.004205
2022.0808,0.003709
2023.9444,0.004711
2025.8081,0.004787
2027.6718,0.004499
2029.5355,0.005571
2031.3991,0.005854
2033.2628,0.006148
2035.1265,0.006663
2036.9901,0.006799
2038.8538,0.007008
2040.7175,0.006701
2042.5811,0.006300
2044.4448,0.005991
2046.3085,0.005367
2048.1721,0.005284
2050.0358,0.005995
2051.8995,0.006415
2053.7631,0.005545
2055.6268,0.004941
2057.4905,0.005337
2059.3542,0.005761
2061.2178,0.006017
2063.0815,0.005812
2064.9452,0.005511
2066.8088,0.005662
2068.6725,0.005720
2070.5362,0.005628
2072.3998,0.005868
2074.2635,0.006107
2076.1272,0.005437
2077.9908,0.004721
2079.8545,0.004919
2081.7182,0.005151
2083.5819,0.004943
2085.4455,0.004896
2087.3092,0.005286
2089.1729,0.005440
2091.0365,0.005138
2092.9002,0.004751
2094.7639,0.004886
2096.6275,0.005577
2098.4912,0.005677
2100.3549,0.005740
2102.2185,0.006095
2104.0822,0.005920
2105.9459,0.005303
2107.8095,0.004888
2109.6732,0.005060
2111.5369,0.005119
2113.4006,0.004798
2115.2642,0.004433
2117.1279,0.004557
2118.9916,0.004969
2120.8552,0.004608
2122.7189,0.004163
2124.5826,0.004080
2126.4462,0.004251
2128.3099,0.004793
2130.1736,0.004758
2132.0372,0.004147
2133.9009,0.003658
2135.7646,0.003452
2137.6282,0.004026
2139.4919,0.004790
2141.3556,0.004954
2143.2193,0.004968
2145.0829,0.004269
2146.9466,0.003620
2148.8103,0.004185
2150.6739,0.004225
2152.5376,0.004281
2154.4013,0.005204
2156.2649,0.006078
2158.1286,0.007003
2159.9923,0.007474
2161.8559,0.007468
2163.7196,0.007260
2165.5833,0.006467
2167.4470,0.006429
2169.3106,0.007159
2171.1743,0.007305
2173.0380,0.007420
2174.9016,0.007071
2176.7653,0.006866
2178.6290,0.007521
2180.4926,0.007005
2182.3563,0.005933
2184.2200,0.006324
2186.0836,0.006614
2187.9473,0.005944
2189.8110,0.005875
2191.6746,0.006592
2193.5383,0.006857
2195.4020,0.006235
2197.2657,0.006229
2199.1293,0.007081
2200.9930,0.007159
2202.8567,0.006734
2204.7203,0.006995
2206.5840,0.007166
2208.4477,0.006643
2210.3113,0.006282
2212.1750,0.006819
2214.0387,0.007149
2215.9023,0.006581
2217.7660,0.006029
2219.6297,0.005710
2221.4934,0.005843
2223.3570,0.005969
2225.2207,0.005828
2227.0844,0.005576
2228.9480,0.005440
2230.8117,0.005668
2232.6754,0.005679
2234.5390,0.005932
2236.4027,0.006225
2238.2664,0.006263
2240.1300,0.006697
2241.9937,0.006522
2243.8574,0.005477
2245.7210,0.005394
2247.5847,0.005819
2249.4484,0.005688
2251.3121,0.005810
2253.1757,0.005853
2255.0394,0.005853
2256.9031,0.006276
2258.7667,0.006271
2260.6304,0.006085
2262.4941,0.006206
2264.3577,0.005833
2266.2214,0.005594
2268.0851,0.005990
2269.9487,0.006195
2271.8124,0.006260
2273.6761,0.006558
2275.5397,0.006533
2277.4034,0.006264
2279.2671,0.006228
2281.1308,0.006320
2282.9944,0.006699
2284.8581,0.007044
2286.7218,0.006981
2288.5854,0.006540
2290.4491,0.006241
2292.3128,0.006017
2294.1764,0.005727
2296.0401,0.005918
2297.9038,0.006217
2299.7674,0.006085
2301.6311,0.005838
2303.4948,0.005853
2305.3585,0.005927
2307.2221,0.005788
2309.0858,0.005739
2310.9495,0.005971
2312.8131,0.006403
2314.6768,0.006217
2316.5405,0.005948
2318.4041,0.006450
2320.2678,0.006616
2322.1315,0.006681
2323.9951,0.006516
2325.8588,0.006046
2327.7225,0.006059
2329.5861,0.005929
2331.4498,0.005550
2333.3135,0.005704
2335.1772,0.006029
2337.0408,0.006626
2338.9045,0.007024
2340.7682,0.006813
2342.6318,0.006932
2344.4955,0.006877
2346.3592,0.006287
2348.2228,0.005439
2350.0865,0.004651
2351.9502,0.004561
2353.8138,0.005233
2355.6775,0.006172
2357.5412,0.007284
2359.4049,0.007662
2361.2685,0.006984
2363.1322,0.007404
2364.9959,0.008075
2366.8595,0.007644
2368.7232,0.007636
2370.5869,0.007947
2372.4505,0.007881
2374.3142,0.007646
2376.1779,0.007242
2378.0415,0.007042
2379.9052,0.006948
2381.7689,0.006583
2383.6325,0.006359
2385.4962,0.006355
2387.3599,0.006353
2389.2236,0.006434
2391.0872,0.006646
2392.9509,0.006629
2394.8146,0.006439
2396.6782,0.006448
2398.5419,0.006434
2400.4056,0.006408
2402.2692,0.006666
2404.1329,0.006737
2405.9966,0.006730
2407.8602,0.006817
2409.7239,0.006691
2411.5876,0.006768
2413.4512,0.006793
2415.3149,0.006836
2417.1786,0.007142
2419.0423,0.007218
2420.9059,0.007206
2422.7696,0.007365
2424.6333,0.007440
2426.4969,0.007339
2428.3606,0.007380
2430.2243,0.007586
2432.0879,0.007773
2433.9516,0.008016
2435.8153,0.007785
2437.6789,0.007667
2439.5426,0.008170
2441.4063,0.008104
2443.2700,0.007741
2445.1336,0.008029
2446.9973,0.008250
2448.8610,0.007964
2450.7246,0.007741
2452.5883,0.007865
2454.4520,0.008202
2456.3156,0.008812
2458.1793,0.008969
2460.0430,0.008478
2461.9066,0.008262
2463.7703,0.008520
2465.6340,0.008602
2467.4976,0.008648
2469.3613,0.008778
2471.2250,0.008500
2473.0887,0.008284
2474.9523,0.008447
2476.8160,0.008594
2478.6797,0.008730
2480.5433,0.008886
2482.4070,0.008925
2484.2707,0.008743
2486.1343,0.008701
2487.9980,0.009014
2489.8617,0.009308
2491.7253,0.009424
2493.5890,0.009600
2495.4527,0.009395
2497.3164,0.009095
2499.1800,0.009092
2501.0437,0.009160
2502.9074,0.009221
2504.7710,0.009510
2506.6347,0.009704
2508.4984,0.009627
2510.3620,0.009376
2512.2257,0.009189
2514.0894,0.009494
2515.9530,0.009724
2517.8167,0.009665
2519.6804,0.009711
2521.5440,0.009842
2523.4077,0.010015
2525.2714,0.009791
2527.1351,0.009724
2528.9987,0.009975
2530.8624,0.009735
2532.7261,0.009657
2534.5897,0.009831
2536.4534,0.009878
2538.3171,0.009886
2540.1807,0.010009
2542.0444,0.010112
2543.9081,0.010193
2545.7717,0.010335
2547.6354,0.010402
2549.4991,0.010435
2551.3627,0.010417
2553.2264,0.010537
2555.0901,0.010663
2556.9538,0.010518
2558.8174,0.010539
2560.6811,0.010683
2562.5448,0.010572
2564.4084,0.010437
2566.2721,0.010726
2568.1358,0.010847
2569.9994,0.010681
2571.8631,0.010805
2573.7268,0.011013
2575.5904,0.011131
2577.4541,0.011184
2579.3178,0.011073
2581.1815,0.010762
2583.0451,0.011080
2584.9088,0.011376
2586.7725,0.011412
2588.6361,0.011563
2590.4998,0.011578
2592.3635,0.011319
2594.2271,0.011233
2596.0908,0.011574
2597.9545,0.011777
2599.8181,0.011770
2601.6818,0.011968
2603.5455,0.012047
2605.4091,0.011944
2607.2728,0.012002
2609.1365,0.012142
2611.0002,0.012070
2612.8638,0.012010
2614.7275,0.012176
2616.5912,0.012213
2618.4548,0.012174
2620.3185,0.012253
2622.1822,0.012330
2624.0458,0.012325
2625.9095,0.012500
2627.7732,0.012647
2629.6368,0.012765
2631.5005,0.012785
2633.3642,0.012911
2635.2279,0.012916
2637.0915,0.012898
2638.9552,0.012883
2640.8189,0.012896
2642.6825,0.012964
2644.5462,0.013017
2646.4099,0.013051
2648.2735,0.012985
2650.1372,0.013053
2652.0009,0.013020
2653.8645,0.012955
2655.7282,0.013043
2657.5919,0.013080
2659.4555,0.013027
2661.3192,0.012961
2663.1829,0.012920
2665.0466,0.012796
2666.9102,0.012726
2668.7739,0.012703
2670.6376,0.012835
2672.5012,0.012979
2674.3649,0.012908
2676.2286,0.013031
2678.0922,0.013122
2679.9559,0.013063
2681.8196,0.013059
2683.6832,0.013092
2685.5469,0.013214
2687.4106,0.013474
2689.2742,0.013540
2691.1379,0.013491
2693.0016,0.013457
2694.8653,0.013451
2696.7289,0.013514
2698.5926,0.013690
2700.4563,0.013858
2702.3199,0.013967
2704.1836,0.013912
2706.0473,0.013943
2707.9109,0.014094
2709.7746,0.014145
2711.6383,0.014180
2713.5019,0.014210
2715.3656,0.014444
2717.2293,0.014750
2719.0930,0.014737
2720.9566,0.014680
2722.8203,0.014849
2724.6840,0.015117
2726.5476,0.015256
2728.4113,0.015269
2730.2750,0.015245
2732.1386,0.015402
2734.0023,0.015597
2735.8660,0.015632
2737.7296,0.015653
2739.5933,0.015810
2741.4570,0.015951
2743.3206,0.016174
2745.1843,0.016334
2747.0480,0.016313
2748.9117,0.016371
2750.7753,0.016536
2752.6390,0.016668
2754.5027,0.016762
2756.3663,0.016763
2758.2300,0.016842
2760.0937,0.017027
2761.9573,0.017049
2763.8210,0.017175
2765.6847,0.017474
2767.5483,0.017657
2769.4120,0.017708
2771.2757,0.017866
2773.1394,0.018003
2775.0030,0.018100
2776.8667,0.018192
2778.7304,0.018320
2780.5940,0.018566
2782.4577,0.018716
2784.3214,0.018722
2786.1850,0.018925
2788.0487,0.019183
2789.9124,0.019182
2791.7760,0.019235
2793.6397,0.019474
2795.5034,0.019701
2797.3670,0.019992
2799.2307,0.020250
2801.0944,0.020245
2802.9581,0.020247
2804.8217,0.020517
2806.6854,0.020470
2808.5491,0.020538
2810.4127,0.021055
2812.2764,0.021243
2814.1401,0.021302
2816.0037,0.021506
2817.8674,0.021682
2819.7311,0.021570
2821.5947,0.021885
2823.4584,0.022472
2825.3221,0.022754
2827.1857,0.022859
2829.0494,0.022818
2830.9131,0.022913
2832.7768,0.023535
2834.6404,0.024085
2836.5041,0.024597
2838.3678,0.025184
2840.2314,0.025875
2842.0951,0.026599
2843.9588,0.027530
2845.8224,0.028676
2847.6861,0.029609
2849.5498,0.030251
2851.4134,0.030746
2853.2771,0.030737
2855.1408,0.030417
2857.0045,0.029886
2858.8681,0.029414
2860.7318,0.029362
2862.5955,0.029320
2864.4591,0.029281
2866.3228,0.029456
2868.1865,0.029592
2870.0501,0.029666
2871.9138,0.029814
2873.7775,0.029680
2875.6411,0.029144
2877.5048,0.028848
2879.3685,0.028754
2881.2321,0.028730
2883.0958,0.028787
2884.9595,0.028935
2886.8232,0.029106
2888.6868,0.029214
2890.5505,0.029620
2892.4142,0.030034
2894.2778,0.030469
2896.1415,0.031126
2898.0052,0.031554
2899.8688,0.031990
2901.7325,0.032310
2903.5962,0.032812
2905.4598,0.033510
2907.3235,0.034567
2909.1872,0.035392
2911.0509,0.036185
2912.9145,0.036874
2914.7782,0.037597
2916.6419,0.038394
2918.5055,0.038937
2920.3692,0.039182
2922.2329,0.039259
2924.0965,0.039143
2925.9602,0.038887
2927.8239,0.038128
2929.6875,0.037406
2931.5512,0.036416
2933.4149,0.035666
2935.2785,0.035195
2937.1422,0.034749
2939.0059,0.034283
2940.8696,0.033694
2942.7332,0.033032
2944.5969,0.032567
2946.4606,0.032443
2948.3242,0.032415
2950.1879,0.032597
2952.0516,0.033028
2953.9152,0.032951
2955.7789,0.032767
2957.6426,0.032619
2959.5062,0.032611
2961.3699,0.032207
2963.2336,0.031538
2965.0972,0.030979
2966.9609,0.030119
2968.8246,0.029452
2970.6883,0.029100
2972.5519,0.028423
2974.4156,0.027659
2976.2793,0.026940
2978.1429,0.026569
2980.0066,0.026172
2981.8703,0.025713
2983.7339,0.025311
2985.5976,0.024771
2987.4613,0.024140
2989.3249,0.024179
2991.1886,0.024234
2993.0523,0.023913
2994.9160,0.023737
2996.7796,0.023968
2998.6433,0.023854
3000.5070,0.023813
3002.3706,0.024041
3004.2343,0.024371
3006.0980,0.024476
3007.9616,0.024434
3009.8253,0.024608
3011.6890,0.024843
3013.5526,0.024920
3015.4163,0.024792
3017.2800,0.024969
3019.1436,0.025127
3021.0073,0.025146
3022.8710,0.025324
3024.7347,0.025609
3026.5983,0.025699
3028.4620,0.026120
3030.3257,0.026444
3032.1893,0.026565
3034.0530,0.026595
3035.9167,0.026516
3037.7803,0.026684
3039.6440,0.027084
3041.5077,0.027192
3043.3713,0.027157
3045.2350,0.027468
3047.0987,0.027408
3048.9624,0.027283
3050.8260,0.027681
3052.6897,0.027971
3054.5534,0.027875
3056.4170,0.027896
3058.2807,0.028248
3060.1444,0.028463
3062.0080,0.028348
3063.8717,0.028320
3065.7354,0.028410
3067.5990,0.028053
3069.4627,0.027648
3071.3264,0.027548
3073.1900,0.027840
3075.0537,0.028187
3076.9174,0.028217
3078.7811,0.027912
3080.6447,0.027838
3082.5084,0.027835
3084.3721,0.027631
3086.2357,0.027519
3088.0994,0.027434
3089.9631,0.027235
3091.8267,0.027214
3093.6904,0.027388
3095.5541,0.027376
3097.4177,0.027111
3099.2814,0.026957
3101.1451,0.027096
3103.0087,0.027310
3104.8724,0.027247
3106.7361,0.027146
3108.5998,0.027265
3110.4634,0.027517
3112.3271,0.027593
3114.1908,0.027610
3116.0544,0.027530
3117.9181,0.027183
3119.7818,0.027327
3121.6454,0.027493
3123.5091,0.027522
3125.3728,0.027721
3127.2364,0.028030
3129.1001,0.028096
3130.9638,0.028112
3132.8275,0.028325
3134.6911,0.028696
3136.5548,0.029028
3138.4185,0.029132
3140.2821,0.028949
3142.1458,0.029180
3144.0095,0.029575
3145.8731,0.029773
3147.7368,0.029868
3149.6005,0.029928
3151.4641,0.030359
3153.3278,0.030530
3155.1915,0.030560
3157.0551,0.030914
3158.9188,0.031219
3160.7825,0.031429
3162.6462,0.031605
3164.5098,0.031426
3166.3735,0.031451
3168.2372,0.031996
3170.1008,0.032300
3171.9645,0.032236
3173.8282,0.032519
3175.6918,0.032844
3177.5555,0.033156
3179.4192,0.033651
3181.2828,0.033450
3183.1465,0.033246
3185.0102,0.033738
3186.8739,0.034172
3188.7375,0.034236
3190.6012,0.034491
3192.4649,0.034714
3194.3285,0.034842
3196.1922,0.034696
3198.0559,0.034778
3199.9195,0.035206
3201.7832,0.035189
3203.6469,0.035000
3205.5105,0.035577
3207.3742,0.036059
3209.2379,0.035516
3211.1015,0.035093
3212.9652,0.035577
3214.8289,0.035968
3216.6926,0.036238
3218.5562,0.036270
3220.4199,0.036567
3222.2836,0.036751
3224.1472,0.036779
3226.0109,0.036975
3227.8746,0.037415
3229.7382,0.037728
3231.6019,0.037816
3233.4656,0.037765
3235.3292,0.038038
3237.1929,0.038718
3239.0566,0.039160
3240.9202,0.039263
3242.7839,0.039381
3244.6476,0.039416
3246.5113,0.039900
3248.3749,0.040269
3250.2386,0.040552
3252.1023,0.040829
3253.9659,0.041334
3255.8296,0.041954
3257.6933,0.042161
3259.5569,0.041970
3261.4206,0.042271
3263.2843,0.042286
3265.1479,0.042588
3267.0116,0.043367
3268.8753,0.043618
3270.7390,0.043165
3272.6026,0.042933
3274.4663,0.042808
3276.3300,0.042565
3278.1936,0.042596
3280.0573,0.042560
3281.9210,0.042075
3283.7846,0.041828
3285.6483,0.041639
3287.5120,0.041286
3289.3756,0.041293
3291.2393,0.041214
3293.1030,0.040460
3294.9666,0.040194
3296.8303,0.040057
3298.6940,0.039638
3300.5577,0.039019
3302.4213,0.038888
3304.2850,0.038546
3306.1487,0.037852
3308.0123,0.037328
3309.8760,0.037021
3311.7397,0.036572
3313.6033,0.036227
3315.4670,0.035790
3317.3307,0.035230
3319.1943,0.034607
3321.0580,0.034231
3322.9217,0.034198
3324.7854,0.033791
3326.6490,0.033193
3328.5127,0.032757
3330.3764,0.032447
3332.2400,0.032143
3334.1037,0.031867
3335.9674,0.031764
3337.8310,0.031447
3339.6947,0.031034
3341.5584,0.030500
3343.4220,0.029864
3345.2857,0.029897
3347.1494,0.029896
3349.0130,0.029679
3350.8767,0.029589
3352.7404,0.029036
3354.6041,0.028196
3356.4677,0.027933
3358.3314,0.027987
3360.1951,0.027720
3362.0587,0.027497
3363.9224,0.027372
3365.7861,0.027108
3367.6497,0.026564
3369.5134,0.026479
3371.3771,0.026338
3373.2407,0.026196
3375.1044,0.025776
3376.9681,0.025440
3378.8317,0.025148
3380.6954,0.025106
3382.5591,0.025143
3384.4228,0.024887
3386.2864,0.024640
3388.1501,0.024445
3390.0138,0.024378
3391.8774,0.024047
3393.7411,0.023673
3395.6048,0.023737
3397.4684,0.023879
3399.3321,0.023747
3401.1958,0.023144
3403.0594,0.022579
3404.9231,0.021939
3406.7868,0.021667
3408.6505,0.021799
3410.5141,0.021926
3412.3778,0.021534
3414.2415,0.021393
3416.1051,0.021421
3417.9688,0.021256
3419.8325,0.021191
3421.6961,0.020807
3423.5598,0.020338
3425.4235,0.020251
3427.2871,0.020149
3429.1508,0.019696
3431.0145,0.019459
3432.8781,0.019789
3434.7418,0.019625
3436.6055,0.018987
3438.4692,0.018573
3440.3328,0.018550
3442.1965,0.018629
3444.0602,0.018642
3445.9238,0.018279
3447.7875,0.017949
3449.6512,0.018271
3451.5148,0.018324
3453.3785,0.017949
3455.2422,0.017461
3457.1058,0.016996
3458.9695,0.016933
3460.8332,0.016970
3462.6969,0.017019
3464.5605,0.016652
3466.4242,0.016119
3468.2879,0.015940
3470.1515,0.016187
3472.0152,0.016077
3473.8789,0.015492
3475.7425,0.015063
3477.6062,0.014883
3479.4699,0.014628
3481.3335,0.014736
3483.1972,0.015281
3485.0609,0.015163
3486.9245,0.014190
3488.7882,0.013162
3490.6519,0.013024
3492.5156,0.013205
3494.3792,0.012989
3496.2429,0.012704
3498.1066,0.012853
3499.9702,0.013031
3501.8339,0.012655
3503.6976,0.012221
3505.5612,0.012431
3507.4249,0.012292
3509.2886,0.011812
3511.1522,0.010931
3513.0159,0.010396
3514.8796,0.010282
3516.7432,0.010227
3518.6069,0.010567
3520.4706,0.010823
3522.3343,0.010500
3524.1979,0.010145
3526.0616,0.010100
3527.9253,0.010046
3529.7889,0.009880
3531.6526,0.009305
3533.5163,0.008694
3535.3799,0.008531
3537.2436,0.008447
3539.1073,0.008399
3540.9709,0.007722
3542.8346,0.007194
3544.6983,0.007355
3546.5620,0.007531
3548.4256,0.007309
3550.2893,0.007148
3552.1530,0.006998
3554.0166,0.006243
3555.8803,0.006042
3557.7440,0.006037
3559.6076,0.005569
3561.4713,0.005207
3563.3350,0.005134
3565.1986,0.005221
3567.0623,0.005208
3568.9260,0.004634
3570.7896,0.004262
3572.6533,0.004252
3574.5170,0.004079
3576.3807,0.003696
3578.2443,0.003348
3580.1080,0.003274
3581.9717,0.003321
3583.8353,0.003275
3585.6990,0.002931
3587.5627,0.002540
3589.4263,0.002309
3591.2900,0.002047
3593.1537,0.002134
3595.0173,0.001731
3596.8810,0.000464
3598.7447,0.000610
3600.6084,0.001073
3602.4720,0.000414
3604.3357,-0.000213
3606.1994,-0.000024
3608.0630,0.000774
3609.9267,0.000838
3611.7904,0.000127
3613.6540,-0.000224
3615.5177,-0.000247
3617.3814,-0.000279
3619.2450,-0.000669
3621.1087,-0.000869
3622.9724,-0.001122
3624.8360,-0.001533
3626.6997,-0.001452
3628.5634,-0.001532
3630.4271,-0.002326
3632.2907,-0.002395
3634.1544,-0.002021
3636.0181,-0.001952
3637.8817,-0.002208
3639.7454,-0.002153
3641.6091,-0.001852
3643.4727,-0.002219
3645.3364,-0.003126
3647.2001,-0.003564
3649.0637,-0.003278
3650.9274,-0.003290
3652.7911,-0.003681
3654.6547,-0.003601
3656.5184,-0.003544
3658.3821,-0.003603
3660.2458,-0.003563
3662.1094,-0.003567
3663.9731,-0.003787
3665.8368,-0.004133
3667.7004,-0.004340
3669.5641,-0.004733
3671.4278,-0.004922
3673.2914,-0.004548
3675.1551,-0.004760
3677.0188,-0.005280
3678.8824,-0.005406
3680.7461,-0.005179
3682.6098,-0.004822
3684.4735,-0.004507
3686.3371,-0.004756
3688.2008,-0.005517
3690.0645,-0.005449
3691.9281,-0.004920
3693.7918,-0.005105
3695.6555,-0.005569
3697.5191,-0.005520
3699.3828,-0.005438
3701.2465,-0.005824
3703.1101,-0.005925
3704.9738,-0.005877
3706.8375,-0.005818
3708.7011,-0.005328
3710.5648,-0.005085
3712.4285,-0.005388
3714.2922,-0.005663
3716.1558,-0.005658
3718.0195,-0.005234
3719.8832,-0.005152
3721.7468,-0.005427
3723.6105,-0.005396
3725.4742,-0.005360
3727.3378,-0.005380
3729.2015,-0.005642
3731.0652,-0.005806
3732.9288,-0.005755
3734.7925,-0.006068
3736.6562,-0.006012
3738.5199,-0.005570
3740.3835,-0.005743
3742.2472,-0.005822
3744.1109,-0.005874
3745.9745,-0.006088
3747.8382,-0.006043
3749.7019,-0.006341
3751.5655,-0.006093
3753.4292,-0.005401
3755.2929,-0.005233
3757.1565,-0.005529
3759.0202,-0.005724
3760.8839,-0.005257
3762.7475,-0.004884
3764.6112,-0.005170
3766.4749,-0.005424
3768.3386,-0.005147
3770.2022,-0.004924
3772.0659,-0.005192
3773.9296,-0.005472
3775.7932,-0.005220
3777.6569,-0.004866
3779.5206,-0.005092
3781.3842,-0.005148
3783.2479,-0.004902
3785.1116,-0.005006
3786.9752,-0.004892
3788.8389,-0.004681
3790.7026,-0.004779
3792.5662,-0.005028
3794.4299,-0.005212
3796.2936,-0.005411
3798.1573,-0.005457
3800.0209,-0.005431
3801.8846,-0.005770
3803.7483,-0.005704
3805.6119,-0.005742
3807.4756,-0.006092
3809.3393,-0.005505
3811.2029,-0.004887
3813.0666,-0.004797
3814.9303,-0.005000
3816.7939,-0.005496
3818.6576,-0.005537
3820.5213,-0.005515
3822.3850,-0.005333
3824.2486,-0.004927
3826.1123,-0.005131
3827.9760,-0.005320
3829.8396,-0.005270
3831.7033,-0.005387
3833.5670,-0.005406
3835.4306,-0.005443
3837.2943,-0.005553
3839.1580,-0.005588
3841.0216,-0.005601
3842.8853,-0.005467
3844.7490,-0.005618
3846.6126,-0.005554
3848.4763,-0.005014
3850.3400,-0.004965
3852.2037,-0.005458
3854.0673,-0.005697
3855.9310,-0.005752
3857.7947,-0.005529
3859.6583,-0.005181
3861.5220,-0.005138
3863.3857,-0.005357
3865.2493,-0.005407
3867.1130,-0.005319
3868.9767,-0.005339
3870.8403,-0.005331
3872.7040,-0.005205
3874.5677,-0.005383
3876.4314,-0.005482
3878.2950,-0.005256
3880.1587,-0.005208
3882.0224,-0.005348
3883.8860,-0.005479
3885.7497,-0.005541
3887.6134,-0.005138
3889.4770,-0.004805
3891.3407,-0.005207
3893.2044,-0.005296
3895.0680,-0.004716
3896.9317,-0.004670
3898.7954,-0.005128
3900.6590,-0.005119
3902.5227,-0.004658
3904.3864,-0.004779
3906.2501,-0.005045
3908.1137,-0.005177
3909.9774,-0.004946
3911.8411,-0.004821
3913.7047,-0.005033
3915.5684,-0.005141
3917.4321,-0.004981
3919.2957,-0.004450
3921.1594,-0.004375
3923.0231,-0.004553
3924.8867,-0.004431
3926.7504,-0.004609
3928.6141,-0.004879
3930.4777,-0.004820
3932.3414,-0.004590
3934.2051,-0.004395
3936.0688,-0.004288
3937.9324,-0.004390
3939.7961,-0.004780
3941.6598,-0.004995
3943.5234,-0.004884
3945.3871,-0.004817
3947.2508,-0.004802
3949.1144,-0.004698
3950.9781,-0.004655
3952.8418,-0.004803
3954.7054,-0.004543
3956.5691,-0.004258
3958.4328,-0.004183
3960.2965,-0.004020
3962.1601,-0.004075
3964.0238,-0.004645
3965.8875,-0.004862
3967.7511,-0.004430
3969.6148,-0.004302
3971.4785,-0.004691
3973.3421,-0.004687
3975.2058,-0.004129
3977.0695,-0.004062
3978.9331,-0.004562
3980.7968,-0.004619
3982.6605,-0.004721
3984.5241,-0.004951
3986.3878,-0.004687
3988.2515,-0.004511
3990.1152,-0.004528
3991.9788,-0.004183
3993.8425,-0.004162
3995.7062,-0.004599
3997.5698,-0.004868
3999.4335,-0.004866
