Wavenumber,Intensity
650.4205,0.124877
652.2841,0.128728
654.1478,0.129028
656.0115,0.126201
657.8751,0.126954
659.7388,0.127320
661.6025,0.126260
663.4661,0.124942
665.3298,0.122746
667.1935,0.122120
669.0571,0.123251
670.9208,0.121498
672.7845,0.122109
674.6481,0.122323
676.5118,0.120869
678.3755,0.120053
680.2392,0.118661
682.1028,0.117341
683.9665,0.116797
685.8302,0.116340
687.6938,0.116228
689.5575,0.115382
691.4212,0.114273
693.2848,0.114455
695.1485,0.114633
697.0122,0.114227
698.8758,0.113871
700.7395,0.112735
702.6032,0.111362
704.4669,0.110454
706.3305,0.109091
708.1942,0.107401
710.0579,0.106116
711.9215,0.104688
713.7852,0.103931
715.6489,0.103371
717.5125,0.102504
719.3762,0.102229
721.2399,0.101968
723.1035,0.100915
724.9672,0.099606
726.8309,0.098399
728.6945,0.096571
730.5582,0.094922
732.4219,0.094645
734.2856,0.094640
736.1492,0.093714
738.0129,0.093219
739.8766,0.093466
741.7402,0.093197
743.6039,0.092570
745.4676,0.092029
747.3312,0.091260
749.1949,0.090214
751.0586,0.089468
752.9222,0.088683
754.7859,0.087501
756.6496,0.086277
758.5132,0.085688
760.3769,0.085523
762.2406,0.084772
764.1043,0.084069
765.9679,0.083942
767.8316,0.083777
769.6953,0.083288
771.5589,0.082520
773.4226,0.081261
775.2863,0.080435
777.1499,0.080284
779.0136,0.080026
780.8773,0.079360
782.7409,0.078617
784.6046,0.077886
786.4683,0.077306
788.3320,0.076595
790.1956,0.075751
792.0593,0.075374
793.9230,0.074963
795.7866,0.074547
797.6503,0.074401
799.5140,0.074036
801.3776,0.073765
803.2413,0.073767
805.1050,0.073311
806.9686,0.072239
808.8323,0.071486
810.6960,0.071331
812.5596,0.071053
814.4233,0.070616
816.2870,0.070415
818.1507,0.070186
820.0143,0.069746
821.8780,0.068906
823.7417,0.067903
825.6053,0.067393
827.4690,0.067037
829.3327,0.066210
831.1963,0.065449
833.0600,0.064944
834.9237,0.064163
836.7873,0.063122
838.6510,0.062376
840.5147,0.061881
842.3784,0.061132
844.2420,0.060339
846.1057,0.059887
847.9694,0.059544
849.8330,0.059389
851.6967,0.059084
853.5604,0.058326
855.4240,0.058018
857.2877,0.058174
859.1514,0.058019
861.0150,0.057887
862.8787,0.057815
864.7424,0.057775
866.6060,0.057885
868.4697,0.057899
870.3334,0.058090
872.1971,0.058301
874.0607,0.058242
875.9244,0.058306
877.7881,0.058287
879.6517,0.058229
881.5154,0.058134
883.3791,0.057686
885.2427,0.057272
887.1064,0.057196
888.9701,0.057063
890.8337,0.056996
892.6974,0.056969
894.5611,0.056696
896.4247,0.056556
898.2884,0.056657
900.1521,0.056568
902.0158,0.056459
903.8794,0.056330
905.7431,0.056205
907.6068,0.056364
909.4704,0.056811
911.3341,0.057373
913.1978,0.058006
915.0614,0.058606
916.9251,0.058991
918.7888,0.059206
920.6524,0.059459
922.5161,0.059622
924.3798,0.059801
926.2435,0.060115
928.1071,0.060317
929.9708,0.060416
931.8345,0.060538
933.6981,0.060751
935.5618,0.060917
937.4255,0.060984
939.2891,0.061181
941.1528,0.061439
943.0165,0.061781
944.8801,0.062213
946.7438,0.062743
948.6075,0.063471
950.4711,0.064221
952.3348,0.064806
954.1985,0.065509
956.0622,0.066409
957.9258,0.067578
959.7895,0.068979
961.6532,0.070461
963.5168,0.071861
965.3805,0.072929
967.2442,0.073477
969.1078,0.073780
970.9715,0.073837
972.8352,0.073645
974.6988,0.073345
976.5625,0.073062
978.4262,0.073106
980.2899,0.073623
982.1535,0.074307
984.0172,0.074959
985.8809,0.075790
987.7445,0.076837
989.6082,0.077938
991.4719,0.079144
993.3355,0.080534
995.1992,0.081969
997.0629,0.083321
998.9265,0.084650
1000.7902,0.086004
1002.6539,0.087346
1004.5175,0.088797
1006.3812,0.090459
1008.2449,0.092419
1010.1086,0.094479
1011.9722,0.096467
1013.8359,0.098453
1015.6996,0.100571
1017.5632,0.102710
1019.4269,0.104612
1021.2906,0.106133
1023.1542,0.107323
1025.0179,0.108459
1026.8816,0.109614
1028.7452,0.110696
1030.6089,0.111578
1032.4726,0.112318
1034.3362,0.112980
1036.1999,0.113475
1038.0636,0.114002
1039.9273,0.114493
1041.7909,0.114737
1043.6546,0.114979
1045.5183,0.115211
1047.3819,0.115380
1049.2456,0.115426
1051.1093,0.115382
1052.9729,0.115385
1054.8366,0.115447
1056.7003,0.115435
1058.5639,0.115338
1060.4276,0.115216
1062.2913,0.115081
1064.1550,0.115138
1066.0186,0.115389
1067.8823,0.115480
1069.7460,0.115526
1071.6096,0.115505
1073.4733,0.115274
1075.3370,0.114835
1077.2006,0.113941
1079.0643,0.112574
1080.9280,0.110966
1082.7916,0.109051
1084.6553,0.106713
1086.5190,0.104193
1088.3826,0.101764
1090.2463,0.099455
1092.1100,0.097382
1093.9737,0.095592
1095.8373,0.093981
1097.7010,0.092526
1099.5647,0.091261
1101.4283,0.090275
1103.2920,0.089533
1105.1557,0.088810
1107.0193,0.088314
1108.8830,0.087981
1110.7467,0.087621
1112.6103,0.087420
1114.4740,0.087246
1116.3377,0.086846
1118.2014,0.086239
1120.0650,0.085573
1121.9287,0.084977
1123.7924,0.084315
1125.6560,0.083599
1127.5197,0.082832
1129.3834,0.081961
1131.2470,0.081019
1133.1107,0.080098
1134.9744,0.079324
1136.8380,0.078784
1138.7017,0.078389
1140.5654,0.078152
1142.4290,0.078049
1144.2927,0.078088
1146.1564,0.078453
1148.0201,0.078980
1149.8837,0.079497
1151.7474,0.079988
1153.6111,0.080346
1155.4747,0.080492
1157.3384,0.080534
1159.2021,0.080603
1161.0657,0.080659
1162.9294,0.080603
1164.7931,0.080365
1166.6567,0.079842
1168.5204,0.079174
1170.3841,0.078222
1172.2477,0.076881
1174.1114,0.075298
1175.9751,0.073598
1177.8388,0.072132
1179.7024,0.071067
1181.5661,0.070424
1183.4298,0.070177
1185.2934,0.070295
1187.1571,0.070735
1189.0208,0.071457
1190.8844,0.072344
1192.7481,0.073276
1194.6118,0.074253
1196.4754,0.075455
1198.3391,0.076875
1200.2028,0.078358
1202.0665,0.079822
1203.9301,0.081258
1205.7938,0.082714
1207.6575,0.084097
1209.5211,0.085333
1211.3848,0.086525
1213.2485,0.087860
1215.1121,0.089252
1216.9758,0.090597
1218.8395,0.091892
1220.7031,0.093038
1222.5668,0.094103
1224.4305,0.095219
1226.2941,0.096125
1228.1578,0.096792
1230.0215,0.097231
1231.8852,0.097601
1233.7488,0.097846
1235.6125,0.097788
1237.4762,0.097512
1239.3398,0.097166
1241.2035,0.096675
1243.0672,0.095978
1244.9308,0.095137
1246.7945,0.094147
1248.6582,0.093183
1250.5218,0.092237
1252.3855,0.091313
1254.2492,0.090459
1256.1129,0.089601
1257.9765,0.088749
1259.8402,0.087993
1261.7039,0.087401
1263.5675,0.086917
1265.4312,0.086444
1267.2949,0.085954
1269.1585,0.085537
1271.0222,0.085210
1272.8859,0.085050
1274.7495,0.084928
1276.6132,0.084832
1278.4769,0.084744
1280.3405,0.084679
1282.2042,0.084679
1284.0679,0.084682
1285.9316,0.084709
1287.7952,0.084809
1289.6589,0.084871
1291.5226,0.084917
1293.3862,0.085004
1295.2499,0.085145
1297.1136,0.085365
1298.9772,0.085599
1300.8409,0.085814
1302.7046,0.086005
1304.5682,0.086164
1306.4319,0.086194
1308.2956,0.086172
1310.1592,0.086157
1312.0229,0.086274
1313.8866,0.086071
1315.7503,0.085377
1317.6139,0.084893
1319.4776,0.084580
1321.3413,0.083966
1323.2049,0.083242
1325.0686,0.082746
1326.9323,0.082442
1328.7959,0.082236
1330.6596,0.082202
1332.5233,0.082104
1334.3869,0.081962
1336.2506,0.082078
1338.1143,0.082807
1339.9780,0.083872
1341.8416,0.083886
1343.7053,0.083428
1345.5690,0.083257
1347.4326,0.083311
1349.2963,0.083451
1351.1600,0.083706
1353.0236,0.084039
1354.8873,0.084641
1356.7510,0.085156
1358.6146,0.085396
1360.4783,0.086483
1362.3420,0.089060
1364.2056,0.091060
1366.0693,0.091810
1367.9330,0.093304
1369.7967,0.094450
1371.6603,0.095027
1373.5240,0.097029
1375.3877,0.099127
1377.2513,0.100028
1379.1150,0.101098
1380.9787,0.101910
1382.8423,0.102209
1384.7060,0.102496
1386.5697,0.104014
1388.4333,0.105083
1390.2970,0.103869
1392.1607,0.102827
1394.0244,0.103434
1395.8880,0.104077
1397.7517,0.103750
1399.6154,0.103585
1401.4790,0.102027
1403.3427,0.100724
1405.2064,0.100079
1407.0700,0.098709
1408.9337,0.097448
1410.7974,0.096697
1412.6610,0.095616
1414.5247,0.093856
1416.3884,0.092599
1418.2520,0.094089
1420.1157,0.095017
1421.9794,0.093206
1423.8431,0.092798
1425.7067,0.092671
1427.5704,0.092654
1429.4341,0.094312
1431.2977,0.095414
1433.1614,0.095111
1435.0251,0.096709
1436.8887,0.101262
1438.7524,0.102110
1440.6161,0.101582
1442.4797,0.101920
1444.3434,0.101791
1446.2071,0.102092
1448.0707,0.103310
1449.9344,0.103225
1451.7981,0.101716
1453.6618,0.099640
1455.5254,0.099668
1457.3891,0.102660
1459.2528,0.100613
1461.1164,0.097155
1462.9801,0.095891
1464.8438,0.097027
1466.7074,0.095953
1468.5711,0.092565
1470.4348,0.090026
1472.2984,0.090197
1474.1621,0.090005
1476.0258,0.089236
1477.8895,0.088449
1479.7531,0.088413
1481.6168,0.090054
1483.4805,0.091024
1485.3441,0.092072
1487.2078,0.095370
1489.0715,0.101517
1490.9351,0.106987
1492.7988,0.108087
1494.6625,0.110219
1496.5261,0.116769
1498.3898,0.122599
1500.2535,0.125404
1502.1171,0.125807
1503.9808,0.126158
1505.8445,0.132035
1507.7082,0.142167
1509.5718,0.144093
1511.4355,0.145559
1513.2992,0.147006
1515.1628,0.148453
1517.0265,0.149479
1518.8902,0.149078
1520.7538,0.149844
1522.6175,0.151037
1524.4812,0.150997
1526.3448,0.152421
1528.2085,0.152868
1530.0722,0.152289
1531.9359,0.152594
1533.7995,0.153474
1535.6632,0.151781
1537.5269,0.150055
1539.3905,0.149521
1541.2542,0.148933
1543.1179,0.147217
1544.9815,0.145046
1546.8452,0.141705
1548.7089,0.138713
1550.5725,0.135089
1552.4362,0.131323
1554.2999,0.126609
1556.1635,0.121600
1558.0272,0.119745
1559.8909,0.117635
1561.7546,0.113037
1563.6182,0.109611
1565.4819,0.106236
1567.3456,0.103550
1569.2092,0.102251
1571.0729,0.099762
1572.9366,0.096598
1574.8002,0.095502
1576.6639,0.095865
1578.5276,0.094178
1580.3912,0.092423
1582.2549,0.091576
1584.1186,0.091346
1585.9822,0.091398
1587.8459,0.091752
1589.7096,0.092263
1591.5733,0.093212
1593.4369,0.094869
1595.3006,0.097093
1597.1643,0.099218
1599.0279,0.101406
1600.8916,0.104056
1602.7553,0.107520
1604.6189,0.111214
1606.4826,0.115223
1608.3463,0.119999
1610.2099,0.124936
1612.0736,0.128750
1613.9373,0.131982
1615.8010,0.137560
1617.6646,0.144323
1619.5283,0.147265
1621.3920,0.150374
1623.2556,0.154913
1625.1193,0.158367
1626.9830,0.161093
1628.8466,0.163697
1630.7103,0.164695
1632.5740,0.164563
1634.4376,0.164656
1636.3013,0.163951
1638.1650,0.162838
1640.0286,0.161292
1641.8923,0.159227
1643.7560,0.156837
1645.6197,0.154543
1647.4833,0.150950
1649.3470,0.147087
1651.2107,0.144332
1653.0743,0.139577
1654.9380,0.133424
1656.8017,0.129849
1658.6653,0.125326
1660.5290,0.120887
1662.3927,0.116318
1664.2563,0.111229
1666.1200,0.106742
1667.9837,0.102933
1669.8474,0.098527
1671.7110,0.094038
1673.5747,0.090264
1675.4384,0.086721
1677.3020,0.082906
1679.1657,0.079306
1681.0294,0.075194
1682.8930,0.071983
1684.7567,0.067766
1686.6204,0.063236
1688.4840,0.059557
1690.3477,0.055681
1692.2114,0.051438
1694.0750,0.047492
1695.9387,0.042468
1697.8024,0.038035
1699.6661,0.035191
1701.5297,0.031540
1703.3934,0.028517
1705.2571,0.026425
1707.1207,0.024371
1708.9844,0.022548
1710.8481,0.020981
1712.7117,0.019706
1714.5754,0.018725
1716.4391,0.018037
1718.3027,0.017154
1720.1664,0.016496
1722.0301,0.015898
1723.8937,0.015704
1725.7574,0.015323
1727.6211,0.014811
1729.4848,0.014599
1731.3484,0.014908
1733.2121,0.015437
1735.0758,0.015913
1736.9394,0.015752
1738.8031,0.016008
1740.6668,0.016648
1742.5304,0.016871
1744.3941,0.016347
1746.2578,0.015770
1748.1214,0.015033
1749.9851,0.013954
1751.8488,0.012506
1753.7125,0.011170
1755.5761,0.009878
1757.4398,0.008699
1759.3035,0.007678
1761.1671,0.006996
1763.0308,0.006548
1764.8945,0.006173
1766.7581,0.005698
1768.6218,0.005170
1770.4855,0.004759
1772.3491,0.004701
1774.2128,0.004678
1776.0765,0.004393
1777.9401,0.004250
1779.8038,0.004200
1781.6675,0.004170
1783.5312,0.004178
1785.3948,0.004110
1787.2585,0.003975
1789.1222,0.003747
1790.9858,0.003634
1792.8495,0.003699
1794.7132,0.003656
1796.5768,0.003480
1798.4405,0.003472
1800.3042,0.003610
1802.1678,0.003580
1804.0315,0.003284
1805.8952,0.003194
1807.7589,0.003162
1809.6225,0.003077
1811.4862,0.003035
1813.3499,0.002888
1815.2135,0.002676
1817.0772,0.002685
1818.9409,0.002850
1820.8045,0.002757
1822.6682,0.002691
1824.5319,0.002947
1826.3955,0.003067
1828.2592,0.003060
1830.1229,0.003119
1831.9865,0.003052
1833.8502,0.002951
1835.7139,0.002946
1837.5776,0.002830
1839.4412,0.002714
1841.3049,0.002943
1843.1686,0.003102
1845.0322,0.003052
1846.8959,0.002938
1848.7596,0.002918
1850.6232,0.003098
1852.4869,0.003210
1854.3506,0.003021
1856.2142,0.002704
1858.0779,0.002628
1859.9416,0.002900
1861.8052,0.003003
1863.6689,0.002941
1865.5326,0.003006
1867.3963,0.003116
1869.2599,0.003453
1871.1236,0.003850
1872.9873,0.003772
1874.8509,0.003456
1876.7146,0.003073
1878.5783,0.002556
1880.4419,0.002680
1882.3056,0.003272
1884.1693,0.003441
1886.0329,0.003269
1887.8966,0.003221
1889.7603,0.002955
1891.6240,0.003127
1893.4876,0.003535
1895.3513,0.003656
1897.2150,0.003531
1899.0786,0.003359
1900.9423,0.003098
1902.8060,0.003031
1904.6696,0.003378
1906.5333,0.003669
1908.3970,0.003455
1910.2606,0.003342
1912.1243,0.003189
1913.9880,0.003132
1915.8516,0.003074
1917.7153,0.003185
1919.5790,0.003887
1921.4427,0.004020
1923.3063,0.003850
1925.1700,0.003760
1927.0337,0.003229
1928.8973,0.002887
1930.7610,0.003469
1932.6247,0.003713
1934.4883,0.003180
1936.3520,0.002569
1938.2157,0.002689
1940.0793,0.003521
1941.9430,0.004004
1943.8067,0.004278
1945.6704,0.004516
1947.5340,0.004835
1949.3977,0.004936
1951.2614,0.004118
1953.1250,0.003430
1954.9887,0.003377
1956.8524,0.003392
1958.7160,0.003136
1960.5797,0.003283
1962.4434,0.003887
1964.3070,0.003665
1966.1707,0.003567
1968.0344,0.004867
1969.8980,0.004635
1971.7617,0.003660
1973.6254,0.004505
1975.4891,0.005315
1977.3527,0.005920
1979.2164,0.006725
1981.0801,0.006774
1982.9437,0.005525
1984.8074,0.004388
1986.6711,0.004869
1988.5347,0.005957
1990.3984,0.006498
1992.2621,0.006231
1994.1257,0.005728
1995.9894,0.005704
1997.8531,0.005408
1999.7167,0.005078
2001.5804,0.003945
2003.4441,0.003626
2005.3078,0.004992
2007.1714,0.005685
2009.0351,0.006071
2010.8988,0.006481
2012.7624,0.005509
2014.6261,0.004795
2016.4898,0.005802
2018.3534,0.006584
2020.2171,0.006456
2022.0808,0.006632
2023.9444,0.006939
2025.8081,0.006724
2027.6718,0.006332
2029.5355,0.006115
2031.3991,0.007067
2033.2628,0.007555
2035.1265,0.006198
2036.9901,0.005400
2038.8538,0.005943
2040.7175,0.006689
2042.5811,0.007540
2044.4448,0.008438
2046.3085,0.008524
2048.1721,0.008308
2050.0358,0.008327
2051.8995,0.008215
2053.7631,0.007849
2055.6268,0.007479
2057.4905,0.007919
2059.3542,0.007751
2061.2178,0.007319
2063.0815,0.007593
2064.9452,0.007864
2066.8088,0.008100
2068.6725,0.008408
2070.5362,0.008367
2072.3998,0.008404
2074.2635,0.008525
2076.1272,0.008054
2077.9908,0.007725
2079.8545,0.007972
2081.7182,0.008240
2083.5819,0.008318
2085.4455,0.008258
2087.3092,0.007687
2089.1729,0.006882
2091.0365,0.006594
2092.9002,0.006784
2094.7639,0.007231
2096.6275,0.007590
2098.4912,0.007711
2100.3549,0.007844
2102.2185,0.007890
2104.0822,0.007852
2105.9459,0.008128
2107.8095,0.008164
2109.6732,0.007559
2111.5369,0.007452
2113.4006,0.008264
2115.2642,0.008386
2117.1279,0.007914
2118.9916,0.007826
2120.8552,0.007601
2122.7189,0.006914
2124.5826,0.006484
2126.4462,0.006611
2128.3099,0.006586
2130.1736,0.006363
2132.0372,0.006270
2133.9009,0.006204
2135.7646,0.006602
2137.6282,0.007402
2139.4919,0.007066
2141.3556,0.006364
2143.2193,0.007047
2145.0829,0.007714
2146.9466,0.007849
2148.8103,0.007743
2150.6739,0.006436
2152.5376,0.005433
2154.4013,0.005847
2156.2649,0.006564
2158.1286,0.007861
2159.9923,0.009801
2161.8559,0.010830
2163.7196,0.010762
2165.5833,0.010883
2167.4470,0.011291
2169.3106,0.009856
2171.1743,0.007801
2173.0380,0.007631
2174.9016,0.008683
2176.7653,0.010328
2178.6290,0.010508
2180.4926,0.009019
2182.3563,0.008846
2184.2200,0.008942
2186.0836,0.008911
2187.9473,0.009440
2189.8110,0.008814
2191.6746,0.008144
2193.5383,0.008918
2195.4020,0.009673
2197.2657,0.009545
2199.1293,0.009153
2200.9930,0.008944
2202.8567,0.008717
2204.7203,0.008292
2206.5840,0.008724
2208.4477,0.009319
2210.3113,0.008661
2212.1750,0.008298
2214.0387,0.008801
2215.9023,0.009228
2217.7660,0.009333
2219.6297,0.008807
2221.4934,0.008490
2223.3570,0.008439
2225.2207,0.008008
2227.0844,0.008047
2228.9480,0.008824
2230.8117,0.009196
2232.6754,0.008789
2234.5390,0.008712
2236.4027,0.009226
2238.2664,0.009437
2240.1300,0.009080
2241.9937,0.008476
2243.8574,0.008313
2245.7210,0.008414
2247.5847,0.008224
2249.4484,0.008051
2251.3121,0.008145
2253.1757,0.008638
2255.0394,0.009178
2256.9031,0.009158
2258.7667,0.008501
2260.6304,0.007957
2262.4941,0.008198
2264.3577,0.008692
2266.2214,0.008707
2268.0851,0.008552
2269.9487,0.008654
2271.8124,0.008641
2273.6761,0.008776
2275.5397,0.009013
2277.4034,0.008930
2279.2671,0.008854
2281.1308,0.008918
2282.9944,0.009210
2284.8581,0.009373
2286.7218,0.009595
2288.5854,0.009643
2290.4491,0.009103
2292.3128,0.008444
2294.1764,0.008288
2296.0401,0.008569
2297.9038,0.008761
2299.7674,0.008696
2301.6311,0.008537
2303.4948,0.008528
2305.3585,0.008590
2307.2221,0.008515
2309.0858,0.008471
2310.9495,0.008367
2312.8131,0.008538
2314.6768,0.009012
2316.5405,0.009459
2318.4041,0.009608
2320.2678,0.009523
2322.1315,0.009937
2323.9951,0.010237
2325.8588,0.009247
2327.7225,0.008028
2329.5861,0.008182
2331.4498,0.008567
2333.3135,0.008350
2335.1772,0.008563
2337.0408,0.009042
2338.9045,0.009298
2340.7682,0.009889
2342.6318,0.010187
2344.4955,0.009927
2346.3592,0.009307
2348.2228,0.008317
2350.0865,0.007474
2351.9502,0.007453
2353.8138,0.007755
2355.6775,0.008427
2357.5412,0.009578
2359.4049,0.009490
2361.2685,0.008983
2363.1322,0.009145
2364.9959,0.009587
2366.8595,0.010049
2368.7232,0.010174
2370.5869,0.010340
2372.4505,0.010401
2374.3142,0.010058
2376.1779,0.009667
2378.0415,0.009474
2379.9052,0.009298
2381.7689,0.009109
2383.6325,0.008932
2385.4962,0.008740
2387.3599,0.008790
2389.2236,0.009039
2391.0872,0.009071
2392.9509,0.008935
2394.8146,0.008950
2396.6782,0.009010
2398.5419,0.009126
2400.4056,0.009310
2402.2692,0.009385
2404.1329,0.009408
2405.9966,0.009508
2407.8602,0.009501
2409.7239,0.009426
2411.5876,0.009455
2413.4512,0.009608
2415.3149,0.009992
2417.1786,0.010121
2419.0423,0.009885
2420.9059,0.010056
2422.7696,0.010219
2424.6333,0.010063
2426.4969,0.009960
2428.3606,0.010184
2430.2243,0.010526
2432.0879,0.010462
2433.9516,0.010572
2435.8153,0.010741
2437.6789,0.010606
2439.5426,0.010704
2441.4063,0.010768
2443.2700,0.010701
2445.1336,0.010820
2446.9973,0.011316
2448.8610,0.011851
2450.7246,0.011723
2452.5883,0.011437
2454.4520,0.011574
2456.3156,0.011858
2458.1793,0.011843
2460.0430,0.011551
2461.9066,0.011555
2463.7703,0.011749
2465.6340,0.011838
2467.4976,0.011903
2469.3613,0.012119
2471.2250,0.012207
2473.0887,0.012049
2474.9523,0.011759
2476.8160,0.011747
2478.6797,0.012226
2480.5433,0.012574
2482.4070,0.012789
2484.2707,0.012691
2486.1343,0.012229
2487.9980,0.012534
2489.8617,0.013034
2491.7253,0.013009
2493.5890,0.013018
2495.4527,0.013192
2497.3164,0.013058
2499.1800,0.013204
2501.0437,0.013665
2502.9074,0.013801
2504.7710,0.013433
2506.6347,0.013229
2508.4984,0.013537
2510.3620,0.013862
2512.2257,0.013989
2514.0894,0.013981
2515.9530,0.013953
2517.8167,0.013806
2519.6804,0.013905
2521.5440,0.013846
2523.4077,0.014043
2525.2714,0.014762
2527.1351,0.014733
2528.9987,0.014792
2530.8624,0.014907
2532.7261,0.014819
2534.5897,0.014680
2536.4534,0.014502
2538.3171,0.014530
2540.1807,0.014750
2542.0444,0.015213
2543.9081,0.015193
2545.7717,0.014745
2547.6354,0.014867
2549.4991,0.015285
2551.3627,0.015623
2553.2264,0.015615
2555.0901,0.015742
2556.9538,0.015781
2558.8174,0.015584
2560.6811,0.015749
2562.5448,0.016322
2564.4084,0.016472
2566.2721,0.016324
2568.1358,0.016552
2569.9994,0.016621
2571.8631,0.016433
2573.7268,0.016670
2575.5904,0.016901
2577.4541,0.016780
2579.3178,0.016587
2581.1815,0.016632
2583.0451,0.017024
2584.9088,0.017163
2586.7725,0.017233
2588.6361,0.017553
2590.4998,0.017765
2592.3635,0.017926
2594.2271,0.017996
2596.0908,0.017994
2597.9545,0.018092
2599.8181,0.018347
2601.6818,0.018310
2603.5455,0.018088
2605.4091,0.018283
2607.2728,0.018640
2609.1365,0.018729
2611.0002,0.019087
2612.8638,0.019249
2614.7275,0.019016
2616.5912,0.019070
2618.4548,0.019312
2620.3185,0.019599
2622.1822,0.020008
2624.0458,0.020233
2625.9095,0.020207
2627.7732,0.020156
2629.6368,0.020404
2631.5005,0.020609
2633.3642,0.020510
2635.2279,0.020424
2637.0915,0.020603
2638.9552,0.021027
2640.8189,0.021129
2642.6825,0.021330
2644.5462,0.021695
2646.4099,0.021601
2648.2735,0.021478
2650.1372,0.021611
2652.0009,0.021695
2653.8645,0.021661
2655.7282,0.021768
2657.5919,0.021864
2659.4555,0.021872
2661.3192,0.021924
2663.1829,0.021858
2665.0466,0.021789
2666.9102,0.021852
2668.7739,0.021913
2670.6376,0.022125
2672.5012,0.022393
2674.3649,0.022430
2676.2286,0.022518
2678.0922,0.022582
2679.9559,0.022549
2681.8196,0.022691
2683.6832,0.022788
2685.5469,0.022832
2687.4106,0.022996
2689.2742,0.023025
2691.1379,0.023211
2693.0016,0.023334
2694.8653,0.023361
2696.7289,0.023667
2698.5926,0.023920
2700.4563,0.023858
2702.3199,0.023889
2704.1836,0.024230
2706.0473,0.024437
2707.9109,0.024589
2709.7746,0.024852
2711.6383,0.024847
2713.5019,0.024841
2715.3656,0.024903
2717.2293,0.025235
2719.0930,0.025560
2720.9566,0.025661
2722.8203,0.025908
2724.6840,0.026181
2726.5476,0.026281
2728.4113,0.026222
2730.2750,0.026438
2732.1386,0.026899
2734.0023,0.027129
2735.8660,0.027154
2737.7296,0.027416
2739.5933,0.027809
2741.4570,0.027966
2743.3206,0.027998
2745.1843,0.028185
2747.0480,0.028412
2748.9117,0.028474
2750.7753,0.028652
2752.6390,0.029138
2754.5027,0.029303
2756.3663,0.029161
2758.2300,0.029321
2760.0937,0.029531
2761.9573,0.029880
2763.8210,0.030230
2765.6847,0.030475
2767.5483,0.030724
2769.4120,0.030926
2771.2757,0.031083
2773.1394,0.031275
2775.0030,0.031426
2776.8667,0.031716
2778.7304,0.031965
2780.5940,0.032262
2782.4577,0.032519
2784.3214,0.032729
2786.1850,0.033003
2788.0487,0.033465
2789.9124,0.033852
2791.7760,0.033897
2793.6397,0.033948
2795.5034,0.034518
2797.3670,0.034838
2799.2307,0.035118
2801.0944,0.035386
2802.9581,0.035394
2804.8217,0.035669
2806.6854,0.036210
2808.5491,0.036483
2810.4127,0.036728
2812.2764,0.037128
2814.1401,0.037679
2816.0037,0.038126
2817.8674,0.038273
2819.7311,0.038415
2821.5947,0.038817
2823.4584,0.039407
2825.3221,0.039890
2827.1857,0.040268
2829.0494,0.040586
2830.9131,0.041153
2832.7768,0.042089
2834.6404,0.042877
2836.5041,0.043657
2838.3678,0.044456
2840.2314,0.045514
2842.0951,0.046904
2843.9588,0.048583
2845.8224,0.050551
2847.6861,0.052644
2849.5498,0.054324
2851.4134,0.055471
2853.2771,0.055637
2855.1408,0.055270
2857.0045,0.054718
2858.8681,0.053991
2860.7318,0.053285
2862.5955,0.052843
2864.4591,0.052739
2866.3228,0.053213
2868.1865,0.053821
2870.0501,0.054283
2871.9138,0.054448
2873.7775,0.054306
2875.6411,0.053909
2877.5048,0.053907
2879.3685,0.053864
2881.2321,0.053632
2883.0958,0.053623
2884.9595,0.053812
2886.8232,0.054019
2888.6868,0.054382
2890.5505,0.054971
2892.4142,0.055833
2894.2778,0.056490
2896.1415,0.057111
2898.0052,0.057714
2899.8688,0.058522
2901.7325,0.059471
2903.5962,0.060143
2905.4598,0.061066
2907.3235,0.062412
2909.1872,0.063714
2911.0509,0.065294
2912.9145,0.066929
2914.7782,0.068300
2916.6419,0.069715
2918.5055,0.071191
2920.3692,0.072255
2922.2329,0.073025
2924.0965,0.073062
2925.9602,0.072840
2927.8239,0.072520
2929.6875,0.071312
2931.5512,0.069683
2933.4149,0.068528
2935.2785,0.067324
2937.1422,0.065969
2939.0059,0.064592
2940.8696,0.063468
2942.7332,0.062316
2944.5969,0.061388
2946.4606,0.060895
2948.3242,0.060763
2950.1879,0.060781
2952.0516,0.061364
2953.9152,0.061884
2955.7789,0.061906
2957.6426,0.061806
2959.5062,0.061665
2961.3699,0.061087
2963.2336,0.060260
2965.0972,0.059424
2966.9609,0.058438
2968.8246,0.057294
2970.6883,0.056414
2972.5519,0.055234
2974.4156,0.054000
2976.2793,0.053199
2978.1429,0.052240
2980.0066,0.051095
2981.8703,0.050318
2983.7339,0.049501
2985.5976,0.048884
2987.4613,0.048350
2989.3249,0.048051
2991.1886,0.047571
2993.0523,0.046718
2994.9160,0.046351
2996.7796,0.046413
2998.6433,0.046373
3000.5070,0.046452
3002.3706,0.046713
3004.2343,0.047058
3006.0980,0.047251
3007.9616,0.047503
3009.8253,0.047964
3011.6890,0.048387
3013.5526,0.048587
3015.4163,0.048719
3017.2800,0.048558
3019.1436,0.048751
3021.0073,0.049142
3022.8710,0.049627
3024.7347,0.050096
3026.5983,0.050590
3028.4620,0.051188
3030.3257,0.051830
3032.1893,0.052088
3034.0530,0.052490
3035.9167,0.052816
3037.7803,0.053176
3039.6440,0.053819
3041.5077,0.054346
3043.3713,0.054477
3045.2350,0.054483
3047.0987,0.054588
3048.9624,0.055181
3050.8260,0.055662
3052.6897,0.056151
3054.5534,0.056793
3056.4170,0.057173
3058.2807,0.057165
3060.1444,0.057613
3062.0080,0.058121
3063.8717,0.058539
3065.7354,0.058847
3067.5990,0.058883
3069.4627,0.058583
3071.3264,0.058695
3073.1900,0.058922
3075.0537,0.058952
3076.9174,0.058953
3078.7811,0.058980
3080.6447,0.058975
3082.5084,0.059010
3084.3721,0.058789
3086.2357,0.058653
3088.0994,0.058628
3089.9631,0.058537
3091.8267,0.058288
3093.6904,0.058158
3095.5541,0.058488
3097.4177,0.058862
3099.2814,0.058676
3101.1451,0.058527
3103.0087,0.058508
3104.8724,0.058626
3106.7361,0.058658
3108.5998,0.058629
3110.4634,0.058773
3112.3271,0.058929
3114.1908,0.059001
3116.0544,0.059277
3117.9181,0.059195
3119.7818,0.059270
3121.6454,0.059492
3123.5091,0.059901
3125.3728,0.060314
3127.2364,0.060989
3129.1001,0.061348
3130.9638,0.061595
3132.8275,0.061929
3134.6911,0.062108
3136.5548,0.062501
3138.4185,0.062909
3140.2821,0.062957
3142.1458,0.063526
3144.0095,0.064405
3145.8731,0.064849
3147.7368,0.065180
3149.6005,0.065928
3151.4641,0.066369
3153.3278,0.066844
3155.1915,0.067185
3157.0551,0.067865
3158.9188,0.068412
3160.7825,0.068811
3162.6462,0.069300
3164.5098,0.069771
3166.3735,0.070237
3168.2372,0.070802
3170.1008,0.071326
3171.9645,0.072369
3173.8282,0.073016
3175.6918,0.073305
3177.5555,0.073760
3179.4192,0.074124
3181.2828,0.074548
3183.1465,0.075524
3185.0102,0.076187
3186.8739,0.076479
3188.7375,0.076776
3190.6012,0.077358
3192.4649,0.077624
3194.3285,0.077740
3196.1922,0.078128
3198.0559,0.078767
3199.9195,0.079251
3201.7832,0.079816
3203.6469,0.079908
3205.5105,0.080155
3207.3742,0.080403
3209.2379,0.080892
3211.1015,0.081303
3212.9652,0.081649
3214.8289,0.081596
3216.6926,0.081937
3218.5562,0.082231
3220.4199,0.082834
3222.2836,0.083395
3224.1472,0.083413
3226.0109,0.083082
3227.8746,0.083445
3229.7382,0.084211
3231.6019,0.084926
3233.4656,0.085429
3235.3292,0.085789
3237.1929,0.085773
3239.0566,0.086310
3240.9202,0.087193
3242.7839,0.087996
3244.6476,0.088456
3246.5113,0.089097
3248.3749,0.089686
3250.2386,0.090052
3252.1023,0.089841
3253.9659,0.090699
3255.8296,0.091717
3257.6933,0.091963
3259.5569,0.092371
3261.4206,0.093097
3263.2843,0.093308
3265.1479,0.093983
3267.0116,0.094928
3268.8753,0.095350
3270.7390,0.094684
3272.6026,0.094737
3274.4663,0.094915
3276.3300,0.094774
3278.1936,0.094540
3280.0573,0.094303
3281.9210,0.094348
3283.7846,0.094336
3285.6483,0.094102
3287.5120,0.093925
3289.3756,0.093090
3291.2393,0.092600
3293.1030,0.092182
3294.9666,0.091261
3296.8303,0.090265
3298.6940,0.090381
3300.5577,0.090057
3302.4213,0.089105
3304.2850,0.088348
3306.1487,0.087841
3308.0123,0.087348
3309.8760,0.086309
3311.7397,0.085142
3313.6033,0.084606
3315.4670,0.084037
3317.3307,0.083418
3319.1943,0.082540
3321.0580,0.082030
3322.9217,0.081562
3324.7854,0.081185
3326.6490,0.080255
3328.5127,0.079110
3330.3764,0.078269
3332.2400,0.078170
3334.1037,0.077828
3335.9674,0.077076
3337.8310,0.076497
3339.6947,0.076355
3341.5584,0.075865
3343.4220,0.075627
3345.2857,0.075033
3347.1494,0.074056
3349.0130,0.073669
3350.8767,0.073452
3352.7404,0.072630
3354.6041,0.072143
3356.4677,0.071915
3358.3314,0.071684
3360.1951,0.070871
3362.0587,0.070315
3363.9224,0.070168
3365.7861,0.069644
3367.6497,0.069296
3369.5134,0.069140
3371.3771,0.068439
3373.2407,0.067562
3375.1044,0.066730
3376.9681,0.066525
3378.8317,0.066632
3380.6954,0.066441
3382.5591,0.065846
3384.4228,0.065191
3386.2864,0.065040
3388.1501,0.065095
3390.0138,0.064240
3391.8774,0.063861
3393.7411,0.064166
3395.6048,0.064076
3397.4684,0.063009
3399.3321,0.062277
3401.1958,0.062151
3403.0594,0.061898
3404.9231,0.061901
3406.7868,0.061740
3408.6505,0.060874
3410.5141,0.060421
3412.3778,0.060184
3414.2415,0.059747
3416.1051,0.059217
3417.9688,0.058658
3419.8325,0.058104
3421.6961,0.058081
3423.5598,0.058108
3425.4235,0.057576
3427.2871,0.056952
3429.1508,0.056762
3431.0145,0.056245
3432.8781,0.055612
3434.7418,0.054684
3436.6055,0.053978
3438.4692,0.054340
3440.3328,0.054631
3442.1965,0.053847
3444.0602,0.053176
3445.9238,0.053093
3447.7875,0.052864
3449.6512,0.051886
3451.5148,0.051302
3453.3785,0.051346
3455.2422,0.050992
3457.1058,0.050540
3458.9695,0.050264
3460.8332,0.049964
3462.6969,0.049445
3464.5605,0.048539
3466.4242,0.047795
3468.2879,0.047953
3470.1515,0.048534
3472.0152,0.048048
3473.8789,0.047068
3475.7425,0.046543
3477.6062,0.045965
3479.4699,0.045122
3481.3335,0.044538
3483.1972,0.044269
3485.0609,0.044062
3486.9245,0.043722
3488.7882,0.043543
3490.6519,0.042744
3492.5156,0.042010
3494.3792,0.041574
3496.2429,0.041351
3498.1066,0.040951
3499.9702,0.040735
3501.8339,0.040501
3503.6976,0.039781
3505.5612,0.038898
3507.4249,0.037934
3509.2886,0.037408
3511.1522,0.037452
3513.0159,0.037480
3514.8796,0.037263
3516.7432,0.036407
3518.6069,0.035490
3520.4706,0.035274
3522.3343,0.034804
3524.1979,0.034198
3526.0616,0.034117
3527.9253,0.033851
3529.7889,0.033393
3531.6526,0.033007
3533.5163,0.032740
3535.3799,0.032165
3537.2436,0.030901
3539.1073,0.030304
3540.9709,0.030124
3542.8346,0.029387
3544.6983,0.028959
3546.5620,0.028503
3548.4256,0.027463
3550.2893,0.026830
3552.1530,0.026646
3554.0166,0.026773
3555.8803,0.026664
3557.7440,0.025988
3559.6076,0.024955
3561.4713,0.023867
3563.3350,0.023039
3565.1986,0.022756
3567.0623,0.022714
3568.9260,0.022381
3570.7896,0.022001
3572.6533,0.021534
3574.5170,0.020738
3576.3807,0.019850
3578.2443,0.019285
3580.1080,0.018759
3581.9717,0.018231
3583.8353,0.018252
3585.6990,0.018236
3587.5627,0.017515
3589.4263,0.016344
3591.2900,0.015614
3593.1537,0.015307
3595.0173,0.015054
3596.8810,0.014583
3598.7447,0.013868
3600.6084,0.013437
3602.4720,0.013086
3604.3357,0.012547
3606.1994,0.011953
3608.0630,0.011416
3609.9267,0.010772
3611.7904,0.010395
3613.6540,0.010145
3615.5177,0.009890
3617.3814,0.009551
3619.2450,0.009076
3621.1087,0.008824
3622.9724,0.008220
3624.8360,0.007537
3626.6997,0.007174
3628.5634,0.006447
3630.4271,0.005633
3632.2907,0.005514
3634.1544,0.005504
3636.0181,0.005350
3637.8817,0.004941
3639.7454,0.004705
3641.6091,0.004491
3643.4727,0.003856
3645.3364,0.002994
3647.2001,0.002139
3649.0637,0.001473
3650.9274,0.001144
3652.7911,0.001379
3654.6547,0.001196
3656.5184,0.000368
3658.3821,0.000217
3660.2458,0.000299
3662.1094,-0.000173
3663.9731,-0.000234
3665.8368,-0.000344
3667.7004,-0.000932
3669.5641,-0.001511
3671.4278,-0.002056
3673.2914,-0.002310
3675.1551,-0.002564
3677.0188,-0.002648
3678.8824,-0.002657
3680.7461,-0.002725
3682.6098,-0.002832
3684.4735,-0.003144
3686.3371,-0.003223
3688.2008,-0.003560
3690.0645,-0.004114
3691.9281,-0.004058
3693.7918,-0.003906
3695.6555,-0.003958
3697.5191,-0.003943
3699.3828,-0.003838
3701.2465,-0.003993
3703.1101,-0.004411
3704.9738,-0.004509
3706.8375,-0.004217
3708.7011,-0.004290
3710.5648,-0.004776
3712.4285,-0.004696
3714.2922,-0.004368
3716.1558,-0.004285
3718.0195,-0.004274
3719.8832,-0.003930
3721.7468,-0.003950
3723.6105,-0.004636
3725.4742,-0.004882
3727.3378,-0.004760
3729.2015,-0.004487
3731.0652,-0.004336
3732.9288,-0.004518
3734.7925,-0.004666
3736.6562,-0.005017
3738.5199,-0.004788
3740.3835,-0.004261
3742.2472,-0.004290
3744.1109,-0.005032
3745.9745,-0.005522
3747.8382,-0.004894
3749.7019,-0.004571
3751.5655,-0.004957
3753.4292,-0.004936
3755.2929,-0.004488
3757.1565,-0.004564
3759.0202,-0.004918
3760.8839,-0.004746
3762.7475,-0.004561
3764.6112,-0.004686
3766.4749,-0.004692
3768.3386,-0.004546
3770.2022,-0.004899
3772.0659,-0.004922
3773.9296,-0.004573
3775.7932,-0.004348
3777.6569,-0.004190
3779.5206,-0.004211
3781.3842,-0.004330
3783.2479,-0.004267
3785.1116,-0.004570
3786.9752,-0.004646
3788.8389,-0.004424
3790.7026,-0.004285
3792.5662,-0.004164
3794.4299,-0.004190
3796.2936,-0.004334
3798.1573,-0.004370
3800.0209,-0.004465
3801.8846,-0.004837
3803.7483,-0.004814
3805.6119,-0.004389
3807.4756,-0.004492
3809.3393,-0.004632
3811.2029,-0.004664
3813.0666,-0.004591
3814.9303,-0.004464
3816.7939,-0.004608
3818.6576,-0.004787
3820.5213,-0.005036
3822.3850,-0.004843
3824.2486,-0.004236
3826.1123,-0.004481
3827.9760,-0.004615
3829.8396,-0.004332
3831.7033,-0.004307
3833.5670,-0.004459
3835.4306,-0.004539
3837.2943,-0.004663
3839.1580,-0.004612
3841.0216,-0.004533
3842.8853,-0.004762
3844.7490,-0.004657
3846.6126,-0.004123
3848.4763,-0.004136
3850.3400,-0.004547
3852.2037,-0.005093
3854.0673,-0.005599
3855.9310,-0.005271
3857.7947,-0.004581
3859.6583,-0.004489
3861.5220,-0.004639
3863.3857,-0.004774
3865.2493,-0.004748
3867.1130,-0.004693
3868.9767,-0.004553
3870.8403,-0.004622
3872.7040,-0.004577
3874.5677,-0.004196
3876.4314,-0.003796
3878.2950,-0.003860
3880.1587,-0.003825
3882.0224,-0.003896
3883.8860,-0.004024
3885.7497,-0.004344
3887.6134,-0.004336
3889.4770,-0.004330
3891.3407,-0.004583
3893.2044,-0.004421
3895.0680,-0.003912
3896.9317,-0.003757
3898.7954,-0.004036
3900.6590,-0.004497
3902.5227,-0.004050
3904.3864,-0.003377
3906.2501,-0.003265
3908.1137,-0.003338
3909.9774,-0.003958
3911.8411,-0.004573
3913.7047,-0.004028
3915.5684,-0.003724
3917.4321,-0.004072
3919.2957,-0.004056
3921.1594,-0.003633
3923.0231,-0.003519
3924.8867,-0.003742
3926.7504,-0.003837
3928.6141,-0.003644
3930.4777,-0.003829
3932.3414,-0.003934
3934.2051,-0.003715
3936.0688,-0.003425
3937.9324,-0.003502
3939.7961,-0.003731
3941.6598,-0.003970
3943.5234,-0.003568
3945.3871,-0.003386
3947.2508,-0.003684
3949.1144,-0.003659
3950.9781,-0.003207
3952.8418,-0.003329
3954.7054,-0.003545
3956.5691,-0.003235
3958.4328,-0.002935
3960.2965,-0.003235
3962.1601,-0.003480
3964.0238,-0.003494
3965.8875,-0.003319
3967.7511,-0.003064
3969.6148,-0.002885
3971.4785,-0.002903
3973.3421,-0.002927
3975.2058,-0.003333
3977.0695,-0.003864
3978.9331,-0.003863
3980.7968,-0.003596
3982.6605,-0.003447
3984.5241,-0.003398
3986.3878,-0.003678
3988.2515,-0.003677
3990.1152,-0.003610
3991.9788,-0.003356
3993.8425,-0.003077
3995.7062,-0.003030
3997.5698,-0.002945
3999.4335,-0.003233
