Wavenumber,Intensity
650.4205,0.104798
652.2841,0.103600
654.1478,0.101738
656.0115,0.100892
657.8751,0.099065
659.7388,0.096758
661.6025,0.096766
663.4661,0.097971
665.3298,0.096550
667.1935,0.095762
669.0571,0.097100
670.9208,0.095072
672.7845,0.094292
674.6481,0.093922
676.5118,0.093599
678.3755,0.092856
680.2392,0.091914
682.1028,0.091174
683.9665,0.090302
685.8302,0.089564
687.6938,0.089448
689.5575,0.088940
691.4212,0.088415
693.2848,0.088816
695.1485,0.088812
697.0122,0.088276
698.8758,0.088326
700.7395,0.087642
702.6032,0.085650
704.4669,0.084041
706.3305,0.082526
708.1942,0.080889
710.0579,0.079900
711.9215,0.079466
713.7852,0.079284
715.6489,0.078424
717.5125,0.077021
719.3762,0.076293
721.2399,0.076007
723.1035,0.074845
724.9672,0.073453
726.8309,0.072630
728.6945,0.072241
730.5582,0.072319
732.4219,0.072284
734.2856,0.071952
736.1492,0.071420
738.0129,0.070588
739.8766,0.069990
741.7402,0.069949
743.6039,0.069753
745.4676,0.069238
747.3312,0.068538
749.1949,0.067927
751.0586,0.067669
752.9222,0.066836
754.7859,0.065707
756.6496,0.065532
758.5132,0.065012
760.3769,0.063675
762.2406,0.063192
764.1043,0.063142
765.9679,0.062531
767.8316,0.061923
769.6953,0.061351
771.5589,0.061089
773.4226,0.061190
775.2863,0.060745
777.1499,0.060243
779.0136,0.059988
780.8773,0.059549
782.7409,0.059129
784.6046,0.058523
786.4683,0.057673
788.3320,0.056949
790.1956,0.056604
792.0593,0.056244
793.9230,0.055881
795.7866,0.055690
797.6503,0.055350
799.5140,0.054980
801.3776,0.054810
803.2413,0.054378
805.1050,0.053883
806.9686,0.053605
808.8323,0.053022
810.6960,0.052332
812.5596,0.052393
814.4233,0.052666
816.2870,0.052361
818.1507,0.051887
820.0143,0.051565
821.8780,0.051078
823.7417,0.050689
825.6053,0.050625
827.4690,0.050445
829.3327,0.050037
831.1963,0.049734
833.0600,0.049558
834.9237,0.049152
836.7873,0.048452
838.6510,0.048011
840.5147,0.047672
842.3784,0.047076
844.2420,0.046432
846.1057,0.046009
847.9694,0.045953
849.8330,0.045981
851.6967,0.045692
853.5604,0.045368
855.4240,0.045199
857.2877,0.045147
859.1514,0.044959
861.0150,0.044821
862.8787,0.044860
864.7424,0.044674
866.6060,0.044455
868.4697,0.044780
870.3334,0.045200
872.1971,0.045365
874.0607,0.045451
875.9244,0.045455
877.7881,0.045457
879.6517,0.045305
881.5154,0.045103
883.3791,0.045064
885.2427,0.044934
887.1064,0.044958
888.9701,0.044786
890.8337,0.044483
892.6974,0.044445
894.5611,0.044446
896.4247,0.044327
898.2884,0.044059
900.1521,0.043835
902.0158,0.043916
903.8794,0.044061
905.7431,0.043971
907.6068,0.043955
909.4704,0.044411
911.3341,0.044887
913.1978,0.045174
915.0614,0.045445
916.9251,0.045732
918.7888,0.046143
920.6524,0.046568
922.5161,0.046836
924.3798,0.047053
926.2435,0.047168
928.1071,0.047288
929.9708,0.047490
931.8345,0.047695
933.6981,0.047732
935.5618,0.047597
937.4255,0.047558
939.2891,0.047640
941.1528,0.047769
943.0165,0.048002
944.8801,0.048093
946.7438,0.048247
948.6075,0.048579
950.4711,0.048920
952.3348,0.049295
954.1985,0.049807
956.0622,0.050427
957.9258,0.051104
959.7895,0.051788
961.6532,0.052496
963.5168,0.053232
965.3805,0.053855
967.2442,0.054192
969.1078,0.054386
970.9715,0.054465
972.8352,0.054429
974.6988,0.054252
976.5625,0.054176
978.4262,0.054347
980.2899,0.054542
982.1535,0.054787
984.0172,0.055229
985.8809,0.055625
987.7445,0.056030
989.6082,0.056564
991.4719,0.057123
993.3355,0.057777
995.1992,0.058673
997.0629,0.059577
998.9265,0.060421
1000.7902,0.061264
1002.6539,0.062202
1004.5175,0.063251
1006.3812,0.064341
1008.2449,0.065422
1010.1086,0.066573
1011.9722,0.067782
1013.8359,0.068948
1015.6996,0.070060
1017.5632,0.071209
1019.4269,0.072320
1021.2906,0.073282
1023.1542,0.074005
1025.0179,0.074565
1026.8816,0.075181
1028.7452,0.075885
1030.6089,0.076432
1032.4726,0.076923
1034.3362,0.077444
1036.1999,0.078001
1038.0636,0.078547
1039.9273,0.078957
1041.7909,0.079317
1043.6546,0.079736
1045.5183,0.080152
1047.3819,0.080616
1049.2456,0.080866
1051.1093,0.080851
1052.9729,0.080846
1054.8366,0.080904
1056.7003,0.080883
1058.5639,0.080831
1060.4276,0.080763
1062.2913,0.080689
1064.1550,0.080612
1066.0186,0.080577
1067.8823,0.080515
1069.7460,0.080395
1071.6096,0.080152
1073.4733,0.079743
1075.3370,0.079187
1077.2006,0.078451
1079.0643,0.077450
1080.9280,0.076354
1082.7916,0.075159
1084.6553,0.073691
1086.5190,0.072163
1088.3826,0.070802
1090.2463,0.069604
1092.1100,0.068477
1093.9737,0.067366
1095.8373,0.066368
1097.7010,0.065602
1099.5647,0.064903
1101.4283,0.064134
1103.2920,0.063518
1105.1557,0.063151
1107.0193,0.062875
1108.8830,0.062520
1110.7467,0.062183
1112.6103,0.061913
1114.4740,0.061685
1116.3377,0.061378
1118.2014,0.060933
1120.0650,0.060436
1121.9287,0.060013
1123.7924,0.059636
1125.6560,0.059190
1127.5197,0.058696
1129.3834,0.058160
1131.2470,0.057516
1133.1107,0.056891
1134.9744,0.056405
1136.8380,0.055988
1138.7017,0.055590
1140.5654,0.055346
1142.4290,0.055217
1144.2927,0.055342
1146.1564,0.055662
1148.0201,0.055911
1149.8837,0.056085
1151.7474,0.056338
1153.6111,0.056612
1155.4747,0.056696
1157.3384,0.056676
1159.2021,0.056753
1161.0657,0.056762
1162.9294,0.056603
1164.7931,0.056365
1166.6567,0.056112
1168.5204,0.055800
1170.3841,0.055288
1172.2477,0.054505
1174.1114,0.053645
1175.9751,0.052809
1177.8388,0.052108
1179.7024,0.051609
1181.5661,0.051355
1183.4298,0.051489
1185.2934,0.051876
1187.1571,0.052305
1189.0208,0.052726
1190.8844,0.053231
1192.7481,0.053900
1194.6118,0.054566
1196.4754,0.055272
1198.3391,0.056169
1200.2028,0.057113
1202.0665,0.058049
1203.9301,0.059087
1205.7938,0.060012
1207.6575,0.060746
1209.5211,0.061456
1211.3848,0.062258
1213.2485,0.063046
1215.1121,0.063883
1216.9758,0.064742
1218.8395,0.065515
1220.7031,0.066228
1222.5668,0.067002
1224.4305,0.067651
1226.2941,0.068177
1228.1578,0.068595
1230.0215,0.068894
1231.8852,0.068935
1233.7488,0.068807
1235.6125,0.068711
1237.4762,0.068551
1239.3398,0.068129
1241.2035,0.067599
1243.0672,0.066944
1244.9308,0.066297
1246.7945,0.065680
1248.6582,0.064978
1250.5218,0.064300
1252.3855,0.063728
1254.2492,0.063156
1256.1129,0.062517
1257.9765,0.061941
1259.8402,0.061545
1261.7039,0.061251
1263.5675,0.060910
1265.4312,0.060612
1267.2949,0.060381
1269.1585,0.060199
1271.0222,0.060114
1272.8859,0.060019
1274.7495,0.059883
1276.6132,0.059865
1278.4769,0.059973
1280.3405,0.059959
1282.2042,0.059848
1284.0679,0.059798
1285.9316,0.059764
1287.7952,0.059799
1289.6589,0.059810
1291.5226,0.059842
1293.3862,0.059919
1295.2499,0.059901
1297.1136,0.060070
1298.9772,0.060170
1300.8409,0.060147
1302.7046,0.060096
1304.5682,0.060056
1306.4319,0.060127
1308.2956,0.060167
1310.1592,0.060116
1312.0229,0.060110
1313.8866,0.059944
1315.7503,0.059478
1317.6139,0.059201
1319.4776,0.059005
1321.3413,0.058481
1323.2049,0.058009
1325.0686,0.057823
1326.9323,0.057708
1328.7959,0.057653
1330.6596,0.057631
1332.5233,0.057510
1334.3869,0.057378
1336.2506,0.057532
1338.1143,0.058194
1339.9780,0.058816
1341.8416,0.058731
1343.7053,0.058303
1345.5690,0.058134
1347.4326,0.058155
1349.2963,0.058278
1351.1600,0.058374
1353.0236,0.058666
1354.8873,0.059216
1356.7510,0.059479
1358.6146,0.059493
1360.4783,0.060286
1362.3420,0.062352
1364.2056,0.063788
1366.0693,0.064158
1367.9330,0.064859
1369.7967,0.065217
1371.6603,0.065478
1373.5240,0.067005
1375.3877,0.068585
1377.2513,0.068906
1379.1150,0.069520
1380.9787,0.070172
1382.8423,0.070341
1384.7060,0.070391
1386.5697,0.071489
1388.4333,0.072409
1390.2970,0.071317
1392.1607,0.070282
1394.0244,0.070756
1395.8880,0.071592
1397.7517,0.071390
1399.6154,0.071175
1401.4790,0.069778
1403.3427,0.068640
1405.2064,0.068569
1407.0700,0.067528
1408.9337,0.066197
1410.7974,0.065531
1412.6610,0.064637
1414.5247,0.063271
1416.3884,0.062515
1418.2520,0.063682
1420.1157,0.064901
1421.9794,0.063628
1423.8431,0.063208
1425.7067,0.063165
1427.5704,0.063031
1429.4341,0.064318
1431.2977,0.065100
1433.1614,0.064783
1435.0251,0.065971
1436.8887,0.069676
1438.7524,0.070108
1440.6161,0.068784
1442.4797,0.068603
1444.3434,0.068281
1446.2071,0.068436
1448.0707,0.069218
1449.9344,0.068974
1451.7981,0.067363
1453.6618,0.065696
1455.5254,0.065752
1457.3891,0.069345
1459.2528,0.068019
1461.1164,0.064970
1462.9801,0.063848
1464.8438,0.064917
1466.7074,0.064342
1468.5711,0.061775
1470.4348,0.060124
1472.2984,0.061568
1474.1621,0.062611
1476.0258,0.062037
1477.8895,0.061645
1479.7531,0.061735
1481.6168,0.062916
1483.4805,0.063545
1485.3441,0.064258
1487.2078,0.066938
1489.0715,0.071656
1490.9351,0.075163
1492.7988,0.074800
1494.6625,0.075355
1496.5261,0.080140
1498.3898,0.083979
1500.2535,0.084514
1502.1171,0.083549
1503.9808,0.082904
1505.8445,0.088282
1507.7082,0.097607
1509.5718,0.096802
1511.4355,0.095460
1513.2992,0.095352
1515.1628,0.094928
1517.0265,0.095404
1518.8902,0.094926
1520.7538,0.095623
1522.6175,0.098509
1524.4812,0.097627
1526.3448,0.097662
1528.2085,0.097788
1530.0722,0.096668
1531.9359,0.095648
1533.7995,0.096548
1535.6632,0.095081
1537.5269,0.091536
1539.3905,0.092045
1541.2542,0.095150
1543.1179,0.093738
1544.9815,0.091427
1546.8452,0.088731
1548.7089,0.085691
1550.5725,0.083444
1552.4362,0.080450
1554.2999,0.076801
1556.1635,0.073762
1558.0272,0.072984
1559.8909,0.075426
1561.7546,0.072313
1563.6182,0.068708
1565.4819,0.066660
1567.3456,0.065146
1569.2092,0.064458
1571.0729,0.063893
1572.9366,0.061782
1574.8002,0.060786
1576.6639,0.061735
1578.5276,0.061156
1580.3912,0.059955
1582.2549,0.059783
1584.1186,0.059596
1585.9822,0.059853
1587.8459,0.060253
1589.7096,0.060799
1591.5733,0.061845
1593.4369,0.063158
1595.3006,0.064367
1597.1643,0.065691
1599.0279,0.067278
1600.8916,0.069136
1602.7553,0.071270
1604.6189,0.073414
1606.4826,0.075650
1608.3463,0.078483
1610.2099,0.080892
1612.0736,0.082587
1613.9373,0.084018
1615.8010,0.087672
1617.6646,0.092941
1619.5283,0.093432
1621.3920,0.093421
1623.2556,0.096382
1625.1193,0.098867
1626.9830,0.099488
1628.8466,0.100564
1630.7103,0.100174
1632.5740,0.098478
1634.4376,0.097860
1636.3013,0.100511
1638.1650,0.099753
1640.0286,0.096872
1641.8923,0.094677
1643.7560,0.092118
1645.6197,0.090091
1647.4833,0.089742
1649.3470,0.087615
1651.2107,0.083469
1653.0743,0.082601
1654.9380,0.082831
1656.8017,0.079047
1658.6653,0.075160
1660.5290,0.071718
1662.3927,0.068776
1664.2563,0.066607
1666.1200,0.063405
1667.9837,0.060180
1669.8474,0.058472
1671.7110,0.056920
1673.5747,0.054116
1675.4384,0.051846
1677.3020,0.049749
1679.1657,0.046998
1681.0294,0.044124
1682.8930,0.041248
1684.7567,0.040234
1686.6204,0.038630
1688.4840,0.035576
1690.3477,0.032835
1692.2114,0.030130
1694.0750,0.027060
1695.9387,0.024283
1697.8024,0.022355
1699.6661,0.020032
1701.5297,0.018638
1703.3934,0.017042
1705.2571,0.015454
1707.1207,0.014400
1708.9844,0.013540
1710.8481,0.012625
1712.7117,0.011812
1714.5754,0.011012
1716.4391,0.010633
1718.3027,0.010482
1720.1664,0.009980
1722.0301,0.009369
1723.8937,0.009124
1725.7574,0.008614
1727.6211,0.008199
1729.4848,0.007869
1731.3484,0.007688
1733.2121,0.007804
1735.0758,0.008267
1736.9394,0.007805
1738.8031,0.007552
1740.6668,0.007532
1742.5304,0.007276
1744.3941,0.006898
1746.2578,0.006497
1748.1214,0.006010
1749.9851,0.005677
1751.8488,0.005239
1753.7125,0.004580
1755.5761,0.003845
1757.4398,0.003578
1759.3035,0.003277
1761.1671,0.002959
1763.0308,0.002719
1764.8945,0.002387
1766.7581,0.002001
1768.6218,0.002018
1770.4855,0.001834
1772.3491,0.001693
1774.2128,0.001776
1776.0765,0.001836
1777.9401,0.001816
1779.8038,0.001775
1781.6675,0.001781
1783.5312,0.001683
1785.3948,0.001741
1787.2585,0.001783
1789.1222,0.001305
1790.9858,0.001158
1792.8495,0.001470
1794.7132,0.001598
1796.5768,0.001510
1798.4405,0.001408
1800.3042,0.001509
1802.1678,0.001594
1804.0315,0.001422
1805.8952,0.001311
1807.7589,0.001214
1809.6225,0.001249
1811.4862,0.001075
1813.3499,0.000858
1815.2135,0.000872
1817.0772,0.000869
1818.9409,0.001029
1820.8045,0.001224
1822.6682,0.001224
1824.5319,0.001074
1826.3955,0.000922
1828.2592,0.000766
1830.1229,0.001070
1831.9865,0.001217
1833.8502,0.001003
1835.7139,0.001065
1837.5776,0.001005
1839.4412,0.000713
1841.3049,0.000704
1843.1686,0.000637
1845.0322,0.001006
1846.8959,0.001395
1848.7596,0.001194
1850.6232,0.001170
1852.4869,0.001221
1854.3506,0.001409
1856.2142,0.001482
1858.0779,0.001079
1859.9416,0.001150
1861.8052,0.001375
1863.6689,0.001241
1865.5326,0.001112
1867.3963,0.000731
1869.2599,0.000750
1871.1236,0.001108
1872.9873,0.001234
1874.8509,0.001265
1876.7146,0.001481
1878.5783,0.001534
1880.4419,0.001643
1882.3056,0.001686
1884.1693,0.001476
1886.0329,0.001288
1887.8966,0.001134
1889.7603,0.000982
1891.6240,0.001506
1893.4876,0.001517
1895.3513,0.001220
1897.2150,0.001733
1899.0786,0.002028
1900.9423,0.001749
1902.8060,0.001216
1904.6696,0.000952
1906.5333,0.001297
1908.3970,0.001239
1910.2606,0.001350
1912.1243,0.001614
1913.9880,0.001762
1915.8516,0.001714
1917.7153,0.001321
1919.5790,0.001022
1921.4427,0.000739
1923.3063,0.000972
1925.1700,0.001623
1927.0337,0.001719
1928.8973,0.001653
1930.7610,0.001613
1932.6247,0.001559
1934.4883,0.001389
1936.3520,0.000978
1938.2157,0.001340
1940.0793,0.002305
1941.9430,0.002775
1943.8067,0.002975
1945.6704,0.002427
1947.5340,0.001743
1949.3977,0.001453
1951.2614,0.000662
1953.1250,0.000728
1954.9887,0.001094
1956.8524,0.000828
1958.7160,0.001094
1960.5797,0.001804
1962.4434,0.002980
1964.3070,0.003596
1966.1707,0.002932
1968.0344,0.001998
1969.8980,0.001963
1971.7617,0.001737
1973.6254,0.001703
1975.4891,0.002700
1977.3527,0.004360
1979.2164,0.004950
1981.0801,0.004326
1982.9437,0.003596
1984.8074,0.003683
1986.6711,0.003672
1988.5347,0.003518
1990.3984,0.003835
1992.2621,0.004001
1994.1257,0.003039
1995.9894,0.002938
1997.8531,0.004084
1999.7167,0.003711
2001.5804,0.002532
2003.4441,0.002132
2005.3078,0.001733
2007.1714,0.003392
2009.0351,0.004816
2010.8988,0.004945
2012.7624,0.005258
2014.6261,0.005316
2016.4898,0.005365
2018.3534,0.005738
2020.2171,0.005306
2022.0808,0.005687
2023.9444,0.007003
2025.8081,0.006780
2027.6718,0.005501
2029.5355,0.006316
2031.3991,0.007528
2033.2628,0.006748
2035.1265,0.006924
2036.9901,0.008491
2038.8538,0.008936
2040.7175,0.008874
2042.5811,0.008696
2044.4448,0.009192
2046.3085,0.009849
2048.1721,0.010546
2050.0358,0.010965
2051.8995,0.010338
2053.7631,0.010338
2055.6268,0.010426
2057.4905,0.010135
2059.3542,0.010231
2061.2178,0.009616
2063.0815,0.009352
2064.9452,0.010083
2066.8088,0.009699
2068.6725,0.008483
2070.5362,0.008275
2072.3998,0.008374
2074.2635,0.008190
2076.1272,0.007734
2077.9908,0.007516
2079.8545,0.007390
2081.7182,0.007018
2083.5819,0.006371
2085.4455,0.005689
2087.3092,0.005147
2089.1729,0.005122
2091.0365,0.005024
2092.9002,0.004671
2094.7639,0.004846
2096.6275,0.005339
2098.4912,0.005520
2100.3549,0.005409
2102.2185,0.005441
2104.0822,0.005663
2105.9459,0.005235
2107.8095,0.004736
2109.6732,0.005069
2111.5369,0.005539
2113.4006,0.005388
2115.2642,0.004876
2117.1279,0.004717
2118.9916,0.004301
2120.8552,0.004085
2122.7189,0.004640
2124.5826,0.004805
2126.4462,0.004488
2128.3099,0.004009
2130.1736,0.002992
2132.0372,0.002511
2133.9009,0.003434
2135.7646,0.004251
2137.6282,0.004416
2139.4919,0.004197
2141.3556,0.004753
2143.2193,0.005268
2145.0829,0.004640
2146.9466,0.004078
2148.8103,0.003425
2150.6739,0.002728
2152.5376,0.003616
2154.4013,0.004646
2156.2649,0.004748
2158.1286,0.006499
2159.9923,0.008982
2161.8559,0.009354
2163.7196,0.007498
2165.5833,0.006502
2167.4470,0.007494
2169.3106,0.008226
2171.1743,0.007986
2173.0380,0.006950
2174.9016,0.005665
2176.7653,0.005031
2178.6290,0.005560
2180.4926,0.006117
2182.3563,0.006090
2184.2200,0.006611
2186.0836,0.007436
2187.9473,0.007525
2189.8110,0.007289
2191.6746,0.007549
2193.5383,0.007329
2195.4020,0.006210
2197.2657,0.006251
2199.1293,0.007379
2200.9930,0.007685
2202.8567,0.007244
2204.7203,0.007191
2206.5840,0.007127
2208.4477,0.006186
2210.3113,0.005750
2212.1750,0.006441
2214.0387,0.006782
2215.9023,0.006503
2217.7660,0.006660
2219.6297,0.006508
2221.4934,0.006194
2223.3570,0.006090
2225.2207,0.006282
2227.0844,0.006731
2228.9480,0.006418
2230.8117,0.005990
2232.6754,0.006566
2234.5390,0.007245
2236.4027,0.006996
2238.2664,0.006750
2240.1300,0.006846
2241.9937,0.006736
2243.8574,0.006449
2245.7210,0.006116
2247.5847,0.005679
2249.4484,0.005405
2251.3121,0.005782
2253.1757,0.006217
2255.0394,0.006642
2256.9031,0.007199
2258.7667,0.007132
2260.6304,0.006720
2262.4941,0.006273
2264.3577,0.005896
2266.2214,0.005806
2268.0851,0.006362
2269.9487,0.006920
2271.8124,0.006807
2273.6761,0.006783
2275.5397,0.007065
2277.4034,0.007281
2279.2671,0.007207
2281.1308,0.007263
2282.9944,0.007792
2284.8581,0.007696
2286.7218,0.007206
2288.5854,0.007180
2290.4491,0.007258
2292.3128,0.007210
2294.1764,0.007301
2296.0401,0.007116
2297.9038,0.006706
2299.7674,0.006747
2301.6311,0.006717
2303.4948,0.006509
2305.3585,0.006478
2307.2221,0.006469
2309.0858,0.006633
2310.9495,0.007022
2312.8131,0.006898
2314.6768,0.006725
2316.5405,0.007031
2318.4041,0.007288
2320.2678,0.007415
2322.1315,0.007807
2323.9951,0.008140
2325.8588,0.007539
2327.7225,0.006501
2329.5861,0.006381
2331.4498,0.006577
2333.3135,0.006299
2335.1772,0.005881
2337.0408,0.006289
2338.9045,0.007487
2340.7682,0.008091
2342.6318,0.007977
2344.4955,0.007595
2346.3592,0.006946
2348.2228,0.006113
2350.0865,0.005228
2351.9502,0.005100
2353.8138,0.005766
2355.6775,0.006656
2357.5412,0.006981
2359.4049,0.007177
2361.2685,0.007618
2363.1322,0.007262
2364.9959,0.007602
2366.8595,0.008457
2368.7232,0.008430
2370.5869,0.008626
2372.4505,0.008430
2374.3142,0.007796
2376.1779,0.007527
2378.0415,0.007583
2379.9052,0.007592
2381.7689,0.007329
2383.6325,0.006866
2385.4962,0.006533
2387.3599,0.006501
2389.2236,0.006532
2391.0872,0.006717
2392.9509,0.006826
2394.8146,0.006626
2396.6782,0.006316
2398.5419,0.006269
2400.4056,0.006595
2402.2692,0.006990
2404.1329,0.007212
2405.9966,0.007300
2407.8602,0.007291
2409.7239,0.007191
2411.5876,0.007416
2413.4512,0.007554
2415.3149,0.007500
2417.1786,0.007671
2419.0423,0.007715
2420.9059,0.007414
2422.7696,0.007505
2424.6333,0.007933
2426.4969,0.008156
2428.3606,0.008045
2430.2243,0.008133
2432.0879,0.008265
2433.9516,0.008089
2435.8153,0.008069
2437.6789,0.008066
2439.5426,0.008162
2441.4063,0.008302
2443.2700,0.008301
2445.1336,0.008547
2446.9973,0.008878
2448.8610,0.009189
2450.7246,0.009045
2452.5883,0.008731
2454.4520,0.008892
2456.3156,0.008994
2458.1793,0.008707
2460.0430,0.008549
2461.9066,0.008731
2463.7703,0.009215
2465.6340,0.009231
2467.4976,0.008946
2469.3613,0.008854
2471.2250,0.009136
2473.0887,0.009165
2474.9523,0.008775
2476.8160,0.008717
2478.6797,0.009195
2480.5433,0.009377
2482.4070,0.009349
2484.2707,0.009358
2486.1343,0.009680
2487.9980,0.009969
2489.8617,0.010029
2491.7253,0.009977
2493.5890,0.009756
2495.4527,0.009528
2497.3164,0.009666
2499.1800,0.009652
2501.0437,0.009576
2502.9074,0.010059
2504.7710,0.010350
2506.6347,0.009931
2508.4984,0.009880
2510.3620,0.010053
2512.2257,0.010051
2514.0894,0.010297
2515.9530,0.010337
2517.8167,0.010312
2519.6804,0.010497
2521.5440,0.010447
2523.4077,0.010438
2525.2714,0.010807
2527.1351,0.010933
2528.9987,0.010809
2530.8624,0.010767
2532.7261,0.010877
2534.5897,0.011252
2536.4534,0.011321
2538.3171,0.011050
2540.1807,0.010912
2542.0444,0.011168
2543.9081,0.011329
2545.7717,0.011282
2547.6354,0.011473
2549.4991,0.011434
2551.3627,0.011300
2553.2264,0.011367
2555.0901,0.011355
2556.9538,0.011458
2558.8174,0.011577
2560.6811,0.011951
2562.5448,0.011863
2564.4084,0.011481
2566.2721,0.011651
2568.1358,0.012028
2569.9994,0.012203
2571.8631,0.012219
2573.7268,0.012184
2575.5904,0.012205
2577.4541,0.012529
2579.3178,0.012519
2581.1815,0.012614
2583.0451,0.012983
2584.9088,0.012876
2586.7725,0.012671
2588.6361,0.012874
2590.4998,0.013006
2592.3635,0.012899
2594.2271,0.013217
2596.0908,0.013466
2597.9545,0.013256
2599.8181,0.013225
2601.6818,0.013463
2603.5455,0.013615
2605.4091,0.013691
2607.2728,0.013788
2609.1365,0.014051
2611.0002,0.014071
2612.8638,0.013977
2614.7275,0.013994
2616.5912,0.014038
2618.4548,0.014113
2620.3185,0.014313
2622.1822,0.014566
2624.0458,0.014749
2625.9095,0.014811
2627.7732,0.014815
2629.6368,0.014860
2631.5005,0.014824
2633.3642,0.014845
2635.2279,0.015113
2637.0915,0.015388
2638.9552,0.015371
2640.8189,0.015284
2642.6825,0.015249
2644.5462,0.015155
2646.4099,0.015105
2648.2735,0.015232
2650.1372,0.015354
2652.0009,0.015478
2653.8645,0.015704
2655.7282,0.015657
2657.5919,0.015471
2659.4555,0.015539
2661.3192,0.015490
2663.1829,0.015295
2665.0466,0.015176
2666.9102,0.015217
2668.7739,0.015344
2670.6376,0.015494
2672.5012,0.015495
2674.3649,0.015283
2676.2286,0.015306
2678.0922,0.015502
2679.9559,0.015585
2681.8196,0.015572
2683.6832,0.015580
2685.5469,0.015712
2687.4106,0.015926
2689.2742,0.016112
2691.1379,0.016144
2693.0016,0.016093
2694.8653,0.016129
2696.7289,0.016331
2698.5926,0.016479
2700.4563,0.016525
2702.3199,0.016581
2704.1836,0.016538
2706.0473,0.016481
2707.9109,0.016650
2709.7746,0.016817
2711.6383,0.017046
2713.5019,0.017123
2715.3656,0.017111
2717.2293,0.017264
2719.0930,0.017358
2720.9566,0.017494
2722.8203,0.017646
2724.6840,0.017675
2726.5476,0.017824
2728.4113,0.018046
2730.2750,0.017908
2732.1386,0.018015
2734.0023,0.018187
2735.8660,0.018192
2737.7296,0.018503
2739.5933,0.018859
2741.4570,0.018959
2743.3206,0.018916
2745.1843,0.018909
2747.0480,0.018967
2748.9117,0.019119
2750.7753,0.019411
2752.6390,0.019494
2754.5027,0.019520
2756.3663,0.019621
2758.2300,0.019680
2760.0937,0.019748
2761.9573,0.019847
2763.8210,0.020008
2765.6847,0.020065
2767.5483,0.020314
2769.4120,0.020557
2771.2757,0.020588
2773.1394,0.020812
2775.0030,0.020944
2776.8667,0.020865
2778.7304,0.021081
2780.5940,0.021191
2782.4577,0.021291
2784.3214,0.021454
2786.1850,0.021579
2788.0487,0.021778
2789.9124,0.021790
2791.7760,0.021947
2793.6397,0.022087
2795.5034,0.022166
2797.3670,0.022370
2799.2307,0.022492
2801.0944,0.022499
2802.9581,0.022715
2804.8217,0.023032
2806.6854,0.023202
2808.5491,0.023271
2810.4127,0.023359
2812.2764,0.023381
2814.1401,0.023585
2816.0037,0.023719
2817.8674,0.023687
2819.7311,0.023850
2821.5947,0.024305
2823.4584,0.024635
2825.3221,0.024821
2827.1857,0.024761
2829.0494,0.024944
2830.9131,0.025306
2832.7768,0.025444
2834.6404,0.025646
2836.5041,0.026107
2838.3678,0.026778
2840.2314,0.027326
2842.0951,0.027652
2843.9588,0.028089
2845.8224,0.028547
2847.6861,0.028978
2849.5498,0.029434
2851.4134,0.029756
2853.2771,0.029669
2855.1408,0.029645
2857.0045,0.029795
2858.8681,0.029811
2860.7318,0.029571
2862.5955,0.029571
2864.4591,0.029891
2866.3228,0.030214
2868.1865,0.030533
2870.0501,0.031050
2871.9138,0.031097
2873.7775,0.030800
2875.6411,0.030559
2877.5048,0.030617
2879.3685,0.030661
2881.2321,0.030439
2883.0958,0.030022
2884.9595,0.030114
2886.8232,0.030535
2888.6868,0.030673
2890.5505,0.030716
2892.4142,0.031066
2894.2778,0.031195
2896.1415,0.031371
2898.0052,0.031549
2899.8688,0.031791
2901.7325,0.032359
2903.5962,0.032841
2905.4598,0.033065
2907.3235,0.033516
2909.1872,0.033988
2911.0509,0.034531
2912.9145,0.035166
2914.7782,0.035527
2916.6419,0.036052
2918.5055,0.036526
2920.3692,0.036449
2922.2329,0.036549
2924.0965,0.036701
2925.9602,0.036727
2927.8239,0.036235
2929.6875,0.035790
2931.5512,0.035320
2933.4149,0.034951
2935.2785,0.034808
2937.1422,0.034748
2939.0059,0.034317
2940.8696,0.033794
2942.7332,0.033483
2944.5969,0.033203
2946.4606,0.033236
2948.3242,0.033192
2950.1879,0.033169
2952.0516,0.033432
2953.9152,0.033638
2955.7789,0.033632
2957.6426,0.033458
2959.5062,0.033496
2961.3699,0.033328
2963.2336,0.032776
2965.0972,0.032353
2966.9609,0.031925
2968.8246,0.031405
2970.6883,0.030822
2972.5519,0.030324
2974.4156,0.030001
2976.2793,0.029609
2978.1429,0.029141
2980.0066,0.028620
2981.8703,0.028140
2983.7339,0.027712
2985.5976,0.027510
2987.4613,0.027514
2989.3249,0.027273
2991.1886,0.027016
2993.0523,0.027007
2994.9160,0.027065
2996.7796,0.026858
2998.6433,0.026482
3000.5070,0.026623
3002.3706,0.026993
3004.2343,0.027337
3006.0980,0.027573
3007.9616,0.027746
3009.8253,0.027764
3011.6890,0.027696
3013.5526,0.027874
3015.4163,0.028054
3017.2800,0.028101
3019.1436,0.028355
3021.0073,0.028526
3022.8710,0.028717
3024.7347,0.028915
3026.5983,0.029162
3028.4620,0.029702
3030.3257,0.029926
3032.1893,0.029701
3034.0530,0.029746
3035.9167,0.029831
3037.7803,0.030089
3039.6440,0.030361
3041.5077,0.030466
3043.3713,0.030430
3045.2350,0.030549
3047.0987,0.031032
3048.9624,0.031409
3050.8260,0.031546
3052.6897,0.031453
3054.5534,0.031218
3056.4170,0.031388
3058.2807,0.031620
3060.1444,0.031741
3062.0080,0.031827
3063.8717,0.031843
3065.7354,0.031696
3067.5990,0.031378
3069.4627,0.031437
3071.3264,0.031541
3073.1900,0.031586
3075.0537,0.031945
3076.9174,0.031891
3078.7811,0.031606
3080.6447,0.031601
3082.5084,0.031667
3084.3721,0.031459
3086.2357,0.030939
3088.0994,0.030523
3089.9631,0.030688
3091.8267,0.030689
3093.6904,0.030505
3095.5541,0.030556
3097.4177,0.031082
3099.2814,0.030854
3101.1451,0.030132
3103.0087,0.030119
3104.8724,0.030438
3106.7361,0.030316
3108.5998,0.030608
3110.4634,0.030755
3112.3271,0.031007
3114.1908,0.031355
3116.0544,0.031335
3117.9181,0.030892
3119.7818,0.030870
3121.6454,0.031015
3123.5091,0.031251
3125.3728,0.031441
3127.2364,0.031582
3129.1001,0.031415
3130.9638,0.031478
3132.8275,0.031780
3134.6911,0.032153
3136.5548,0.032107
3138.4185,0.032141
3140.2821,0.032324
3142.1458,0.032659
3144.0095,0.032976
3145.8731,0.033183
3147.7368,0.033144
3149.6005,0.033552
3151.4641,0.034082
3153.3278,0.034145
3155.1915,0.033962
3157.0551,0.034007
3158.9188,0.034231
3160.7825,0.034607
3162.6462,0.034701
3164.5098,0.035034
3166.3735,0.035229
3168.2372,0.035266
3170.1008,0.035363
3171.9645,0.035465
3173.8282,0.035633
3175.6918,0.036062
3177.5555,0.036351
3179.4192,0.036438
3181.2828,0.036477
3183.1465,0.036710
3185.0102,0.036943
3186.8739,0.037139
3188.7375,0.037053
3190.6012,0.036969
3192.4649,0.037195
3194.3285,0.037518
3196.1922,0.037932
3198.0559,0.038101
3199.9195,0.038083
3201.7832,0.038101
3203.6469,0.037998
3205.5105,0.038159
3207.3742,0.038331
3209.2379,0.038241
3211.1015,0.038121
3212.9652,0.038219
3214.8289,0.038274
3216.6926,0.038237
3218.5562,0.038555
3220.4199,0.038828
3222.2836,0.038985
3224.1472,0.039384
3226.0109,0.039487
3227.8746,0.039131
3229.7382,0.038913
3231.6019,0.038934
3233.4656,0.039059
3235.3292,0.039772
3237.1929,0.040259
3239.0566,0.040347
3240.9202,0.040736
3242.7839,0.040957
3244.6476,0.040952
3246.5113,0.041204
3248.3749,0.041167
3250.2386,0.041006
3252.1023,0.041192
3253.9659,0.041799
3255.8296,0.042118
3257.6933,0.042157
3259.5569,0.042210
3261.4206,0.042171
3263.2843,0.041751
3265.1479,0.042011
3267.0116,0.042726
3268.8753,0.042853
3270.7390,0.042553
3272.6026,0.042664
3274.4663,0.042721
3276.3300,0.042409
3278.1936,0.042378
3280.0573,0.042541
3281.9210,0.042240
3283.7846,0.041990
3285.6483,0.041586
3287.5120,0.041196
3289.3756,0.040899
3291.2393,0.040726
3293.1030,0.040429
3294.9666,0.039981
3296.8303,0.039842
3298.6940,0.039736
3300.5577,0.039174
3302.4213,0.038794
3304.2850,0.038470
3306.1487,0.037802
3308.0123,0.037556
3309.8760,0.037597
3311.7397,0.037165
3313.6033,0.036595
3315.4670,0.036194
3317.3307,0.035944
3319.1943,0.035639
3321.0580,0.035359
3322.9217,0.035127
3324.7854,0.034813
3326.6490,0.034033
3328.5127,0.033535
3330.3764,0.033057
3332.2400,0.033044
3334.1037,0.032844
3335.9674,0.032477
3337.8310,0.032403
3339.6947,0.032135
3341.5584,0.031630
3343.4220,0.031614
3345.2857,0.031682
3347.1494,0.031213
3349.0130,0.030723
3350.8767,0.030267
3352.7404,0.029880
3354.6041,0.029835
3356.4677,0.029967
3358.3314,0.029943
3360.1951,0.029520
3362.0587,0.029425
3363.9224,0.029284
3365.7861,0.028956
3367.6497,0.028941
3369.5134,0.028691
3371.3771,0.027752
3373.2407,0.027201
3375.1044,0.027405
3376.9681,0.027720
3378.8317,0.027532
3380.6954,0.027093
3382.5591,0.026616
3384.4228,0.026919
3386.2864,0.026856
3388.1501,0.026229
3390.0138,0.026117
3391.8774,0.026279
3393.7411,0.026150
3395.6048,0.025979
3397.4684,0.025757
3399.3321,0.025380
3401.1958,0.024953
3403.0594,0.025041
3404.9231,0.024807
3406.7868,0.024668
3408.6505,0.025192
3410.5141,0.025278
3412.3778,0.024705
3414.2415,0.024214
3416.1051,0.023786
3417.9688,0.023499
3419.8325,0.023266
3421.6961,0.022910
3423.5598,0.022763
3425.4235,0.022604
3427.2871,0.022199
3429.1508,0.022456
3431.0145,0.022312
3432.8781,0.021768
3434.7418,0.021526
3436.6055,0.021911
3438.4692,0.022292
3440.3328,0.021851
3442.1965,0.021426
3444.0602,0.021224
3445.9238,0.020881
3447.7875,0.020597
3449.6512,0.020506
3451.5148,0.020202
3453.3785,0.019845
3455.2422,0.019270
3457.1058,0.018904
3458.9695,0.019563
3460.8332,0.019860
3462.6969,0.019420
3464.5605,0.018757
3466.4242,0.018346
3468.2879,0.018332
3470.1515,0.018421
3472.0152,0.018605
3473.8789,0.018297
3475.7425,0.017620
3477.6062,0.017597
3479.4699,0.017846
3481.3335,0.017564
3483.1972,0.016612
3485.0609,0.016254
3486.9245,0.016553
3488.7882,0.016513
3490.6519,0.015703
3492.5156,0.014825
3494.3792,0.014803
3496.2429,0.015067
3498.1066,0.015107
3499.9702,0.015153
3501.8339,0.014630
3503.6976,0.013934
3505.5612,0.013943
3507.4249,0.014050
3509.2886,0.014180
3511.1522,0.014357
3513.0159,0.013921
3514.8796,0.013565
3516.7432,0.013346
3518.6069,0.012874
3520.4706,0.012714
3522.3343,0.012750
3524.1979,0.011976
3526.0616,0.011568
3527.9253,0.012047
3529.7889,0.011904
3531.6526,0.011222
3533.5163,0.011222
3535.3799,0.011208
3537.2436,0.010634
3539.1073,0.010368
3540.9709,0.009939
3542.8346,0.009563
3544.6983,0.009603
3546.5620,0.009815
3548.4256,0.010134
3550.2893,0.009684
3552.1530,0.008935
3554.0166,0.008673
3555.8803,0.008776
3557.7440,0.008747
3559.6076,0.008080
3561.4713,0.007554
3563.3350,0.007381
3565.1986,0.006825
3567.0623,0.006761
3568.9260,0.007470
3570.7896,0.006972
3572.6533,0.006055
3574.5170,0.006076
3576.3807,0.006144
3578.2443,0.005771
3580.1080,0.005433
3581.9717,0.005232
3583.8353,0.004956
3585.6990,0.004931
3587.5627,0.005318
3589.4263,0.004760
3591.2900,0.003860
3593.1537,0.003861
3595.0173,0.004223
3596.8810,0.004141
3598.7447,0.003848
3600.6084,0.003441
3602.4720,0.002923
3604.3357,0.002474
3606.1994,0.002269
3608.0630,0.002194
3609.9267,0.002041
3611.7904,0.001974
3613.6540,0.001537
3615.5177,0.001340
3617.3814,0.001558
3619.2450,0.001416
3621.1087,0.000896
3622.9724,0.000422
3624.8360,0.000033
3626.6997,-0.000236
3628.5634,-0.000386
3630.4271,-0.000754
3632.2907,-0.000911
3634.1544,-0.000806
3636.0181,-0.000609
3637.8817,-0.000554
3639.7454,-0.000884
3641.6091,-0.001370
3643.4727,-0.001627
3645.3364,-0.001853
3647.2001,-0.002490
3649.0637,-0.002885
3650.9274,-0.002722
3652.7911,-0.002783
3654.6547,-0.002914
3656.5184,-0.003028
3658.3821,-0.003098
3660.2458,-0.003187
3662.1094,-0.003319
3663.9731,-0.003386
3665.8368,-0.003648
3667.7004,-0.003998
3669.5641,-0.004349
3671.4278,-0.004410
3673.2914,-0.004304
3675.1551,-0.004681
3677.0188,-0.004888
3678.8824,-0.004849
3680.7461,-0.004942
3682.6098,-0.004992
3684.4735,-0.005264
3686.3371,-0.005536
3688.2008,-0.005547
3690.0645,-0.005554
3691.9281,-0.005355
3693.7918,-0.004981
3695.6555,-0.005112
3697.5191,-0.005376
3699.3828,-0.005389
3701.2465,-0.005580
3703.1101,-0.005935
3704.9738,-0.006105
3706.8375,-0.005961
3708.7011,-0.006034
3710.5648,-0.006350
3712.4285,-0.005943
3714.2922,-0.005429
3716.1558,-0.005747
3718.0195,-0.005846
3719.8832,-0.005627
3721.7468,-0.005987
3723.6105,-0.006028
3725.4742,-0.005702
3727.3378,-0.005814
3729.2015,-0.006113
3731.0652,-0.006062
3732.9288,-0.005903
3734.7925,-0.006494
3736.6562,-0.006831
3738.5199,-0.006421
3740.3835,-0.006191
3742.2472,-0.006068
3744.1109,-0.006194
3745.9745,-0.006180
3747.8382,-0.006175
3749.7019,-0.006326
3751.5655,-0.006056
3753.4292,-0.005685
3755.2929,-0.005547
3757.1565,-0.005747
3759.0202,-0.005833
3760.8839,-0.005672
3762.7475,-0.005613
3764.6112,-0.005838
3766.4749,-0.005972
3768.3386,-0.005940
3770.2022,-0.005933
3772.0659,-0.005661
3773.9296,-0.005600
3775.7932,-0.005592
3777.6569,-0.005559
3779.5206,-0.005958
3781.3842,-0.006216
3783.2479,-0.006089
3785.1116,-0.005656
3786.9752,-0.005210
3788.8389,-0.005444
3790.7026,-0.005828
3792.5662,-0.005771
3794.4299,-0.005779
3796.2936,-0.006266
3798.1573,-0.006494
3800.0209,-0.006362
3801.8846,-0.006272
3803.7483,-0.005622
3805.6119,-0.005543
3807.4756,-0.006268
3809.3393,-0.006180
3811.2029,-0.005762
3813.0666,-0.005726
3814.9303,-0.005950
3816.7939,-0.006048
3818.6576,-0.005778
3820.5213,-0.006070
3822.3850,-0.006222
3824.2486,-0.005817
3826.1123,-0.005797
3827.9760,-0.005723
3829.8396,-0.005658
3831.7033,-0.005798
3833.5670,-0.005893
3835.4306,-0.006104
3837.2943,-0.006404
3839.1580,-0.006245
3841.0216,-0.006076
3842.8853,-0.005746
3844.7490,-0.005656
3846.6126,-0.005721
3848.4763,-0.005572
3850.3400,-0.005637
3852.2037,-0.006276
3854.0673,-0.006430
3855.9310,-0.005472
3857.7947,-0.005211
3859.6583,-0.005470
3861.5220,-0.005885
3863.3857,-0.006416
3865.2493,-0.005932
3867.1130,-0.005319
3868.9767,-0.005915
3870.8403,-0.006286
3872.7040,-0.005801
3874.5677,-0.005576
3876.4314,-0.005392
3878.2950,-0.005455
3880.1587,-0.005723
3882.0224,-0.005897
3883.8860,-0.005604
3885.7497,-0.005454
3887.6134,-0.005265
3889.4770,-0.005147
3891.3407,-0.005663
3893.2044,-0.005546
3895.0680,-0.005276
3896.9317,-0.005712
3898.7954,-0.005713
3900.6590,-0.005513
3902.5227,-0.005249
3904.3864,-0.004969
3906.2501,-0.005208
3908.1137,-0.005112
3909.9774,-0.004944
3911.8411,-0.005031
3913.7047,-0.004901
3915.5684,-0.004786
3917.4321,-0.005090
3919.2957,-0.005379
3921.1594,-0.005357
3923.0231,-0.005190
3924.8867,-0.005192
3926.7504,-0.004822
3928.6141,-0.004604
3930.4777,-0.004899
3932.3414,-0.004937
3934.2051,-0.004765
3936.0688,-0.005085
3937.9324,-0.005308
3939.7961,-0.004759
3941.6598,-0.004814
3943.5234,-0.005175
3945.3871,-0.004903
3947.2508,-0.004640
3949.1144,-0.004959
3950.9781,-0.005077
3952.8418,-0.004771
3954.7054,-0.004636
3956.5691,-0.004866
3958.4328,-0.005035
3960.2965,-0.005213
3962.1601,-0.005404
3964.0238,-0.005241
3965.8875,-0.005058
3967.7511,-0.005308
3969.6148,-0.005188
3971.4785,-0.005112
3973.3421,-0.005159
3975.2058,-0.005417
3977.0695,-0.005221
3978.9331,-0.004706
3980.7968,-0.004601
3982.6605,-0.004767
3984.5241,-0.004771
3986.3878,-0.004631
3988.2515,-0.004692
3990.1152,-0.004894
3991.9788,-0.004909
3993.8425,-0.004792
3995.7062,-0.004863
3997.5698,-0.005011
3999.4335,-0.004808
