Wavenumber,Intensity
650.4205,0.122506
652.2841,0.120325
654.1478,0.122362
656.0115,0.123323
657.8751,0.125573
659.7388,0.125341
661.6025,0.122504
663.4661,0.121718
665.3298,0.123292
667.1935,0.120637
669.0571,0.118722
670.9208,0.118285
672.7845,0.116639
674.6481,0.116993
676.5118,0.118606
678.3755,0.117351
680.2392,0.115956
682.1028,0.115696
683.9665,0.114745
685.8302,0.113495
687.6938,0.112294
689.5575,0.111798
691.4212,0.110563
693.2848,0.110136
695.1485,0.110218
697.0122,0.109302
698.8758,0.108590
700.7395,0.108494
702.6032,0.107682
704.4669,0.106718
706.3305,0.106240
708.1942,0.105228
710.0579,0.104441
711.9215,0.103267
713.7852,0.101973
715.6489,0.101298
717.5125,0.101289
719.3762,0.100947
721.2399,0.100014
723.1035,0.098640
724.9672,0.097894
726.8309,0.097389
728.6945,0.096359
730.5582,0.095735
732.4219,0.095714
734.2856,0.095059
736.1492,0.094526
738.0129,0.093882
739.8766,0.093550
741.7402,0.093103
743.6039,0.092723
745.4676,0.092568
747.3312,0.092193
749.1949,0.091140
751.0586,0.090430
752.9222,0.090195
754.7859,0.089675
756.6496,0.089319
758.5132,0.089294
760.3769,0.089206
762.2406,0.089326
764.1043,0.089249
765.9679,0.088825
767.8316,0.088357
769.6953,0.088347
771.5589,0.087947
773.4226,0.087650
775.2863,0.087451
777.1499,0.086842
779.0136,0.086128
780.8773,0.085687
782.7409,0.084815
784.6046,0.083991
786.4683,0.082996
788.3320,0.082003
790.1956,0.081411
792.0593,0.080509
793.9230,0.079395
795.7866,0.078689
797.6503,0.078047
799.5140,0.077759
801.3776,0.077610
803.2413,0.077249
805.1050,0.076816
806.9686,0.076411
808.8323,0.075826
810.6960,0.075444
812.5596,0.075054
814.4233,0.074679
816.2870,0.074403
818.1507,0.074124
820.0143,0.073662
821.8780,0.072987
823.7417,0.072082
825.6053,0.071297
827.4690,0.070571
829.3327,0.069792
831.1963,0.069081
833.0600,0.068697
834.9237,0.068487
836.7873,0.068192
838.6510,0.068038
840.5147,0.068084
842.3784,0.067930
844.2420,0.067786
846.1057,0.067667
847.9694,0.067842
849.8330,0.068182
851.6967,0.068445
853.5604,0.068323
855.4240,0.067844
857.2877,0.067176
859.1514,0.066624
861.0150,0.066190
862.8787,0.065672
864.7424,0.065235
866.6060,0.064964
868.4697,0.064807
870.3334,0.064659
872.1971,0.064315
874.0607,0.063971
875.9244,0.063627
877.7881,0.063388
879.6517,0.062851
881.5154,0.062208
883.3791,0.061742
885.2427,0.061288
887.1064,0.060779
888.9701,0.060455
890.8337,0.060334
892.6974,0.060257
894.5611,0.060200
896.4247,0.060238
898.2884,0.059995
900.1521,0.059694
902.0158,0.059576
903.8794,0.059624
905.7431,0.059626
907.6068,0.059580
909.4704,0.059559
911.3341,0.059894
913.1978,0.060458
915.0614,0.061062
916.9251,0.061587
918.7888,0.062167
920.6524,0.062815
922.5161,0.063249
924.3798,0.063537
926.2435,0.063747
928.1071,0.063672
929.9708,0.063203
931.8345,0.062692
933.6981,0.062443
935.5618,0.062415
937.4255,0.062601
939.2891,0.062732
941.1528,0.062829
943.0165,0.063266
944.8801,0.063878
946.7438,0.064338
948.6075,0.064676
950.4711,0.065009
952.3348,0.065294
954.1985,0.065680
956.0622,0.066325
957.9258,0.067292
959.7895,0.068636
961.6532,0.070334
963.5168,0.072142
965.3805,0.073849
967.2442,0.075566
969.1078,0.076903
970.9715,0.077891
972.8352,0.078848
974.6988,0.079946
976.5625,0.081391
978.4262,0.083075
980.2899,0.084815
982.1535,0.086578
984.0172,0.088552
985.8809,0.090593
987.7445,0.092418
989.6082,0.094009
991.4719,0.095411
993.3355,0.096922
995.1992,0.098437
997.0629,0.100152
998.9265,0.101918
1000.7902,0.103666
1002.6539,0.105489
1004.5175,0.107436
1006.3812,0.109620
1008.2449,0.112342
1010.1086,0.115270
1011.9722,0.118242
1013.8359,0.121301
1015.6996,0.124362
1017.5632,0.127268
1019.4269,0.129773
1021.2906,0.131594
1023.1542,0.132962
1025.0179,0.134228
1026.8816,0.135352
1028.7452,0.136351
1030.6089,0.137451
1032.4726,0.138341
1034.3362,0.138870
1036.1999,0.139012
1038.0636,0.138741
1039.9273,0.138043
1041.7909,0.137073
1043.6546,0.135894
1045.5183,0.134769
1047.3819,0.133865
1049.2456,0.133240
1051.1093,0.132792
1052.9729,0.132492
1054.8366,0.132192
1056.7003,0.132040
1058.5639,0.131980
1060.4276,0.131873
1062.2913,0.131609
1064.1550,0.131633
1066.0186,0.131919
1067.8823,0.132342
1069.7460,0.132765
1071.6096,0.133190
1073.4733,0.133302
1075.3370,0.132889
1077.2006,0.131892
1079.0643,0.130151
1080.9280,0.127814
1082.7916,0.125078
1084.6553,0.121982
1086.5190,0.118938
1088.3826,0.116049
1090.2463,0.113321
1092.1100,0.110931
1093.9737,0.109082
1095.8373,0.107629
1097.7010,0.106478
1099.5647,0.105453
1101.4283,0.104588
1103.2920,0.104102
1105.1557,0.103834
1107.0193,0.103496
1108.8830,0.103142
1110.7467,0.102870
1112.6103,0.102743
1114.4740,0.102514
1116.3377,0.102042
1118.2014,0.101346
1120.0650,0.100505
1121.9287,0.099332
1123.7924,0.097818
1125.6560,0.095974
1127.5197,0.094016
1129.3834,0.091918
1131.2470,0.089743
1133.1107,0.087676
1134.9744,0.085802
1136.8380,0.084170
1138.7017,0.082859
1140.5654,0.081843
1142.4290,0.081138
1144.2927,0.080734
1146.1564,0.080422
1148.0201,0.080044
1149.8837,0.079527
1151.7474,0.078808
1153.6111,0.077791
1155.4747,0.076604
1157.3384,0.075444
1159.2021,0.074188
1161.0657,0.072818
1162.9294,0.071446
1164.7931,0.070006
1166.6567,0.068390
1168.5204,0.066683
1170.3841,0.064830
1172.2477,0.062813
1174.1114,0.060778
1175.9751,0.058957
1177.8388,0.057424
1179.7024,0.056132
1181.5661,0.055141
1183.4298,0.054525
1185.2934,0.054217
1187.1571,0.054171
1189.0208,0.054263
1190.8844,0.054468
1192.7481,0.054820
1194.6118,0.055269
1196.4754,0.055881
1198.3391,0.056703
1200.2028,0.057624
1202.0665,0.058516
1203.9301,0.059280
1205.7938,0.059951
1207.6575,0.060513
1209.5211,0.061054
1211.3848,0.061588
1213.2485,0.062121
1215.1121,0.062776
1216.9758,0.063529
1218.8395,0.064394
1220.7031,0.065367
1222.5668,0.066418
1224.4305,0.067480
1226.2941,0.068482
1228.1578,0.069407
1230.0215,0.070255
1231.8852,0.071005
1233.7488,0.071659
1235.6125,0.072179
1237.4762,0.072550
1239.3398,0.072833
1241.2035,0.072918
1243.0672,0.072891
1244.9308,0.072793
1246.7945,0.072508
1248.6582,0.072204
1250.5218,0.071967
1252.3855,0.071681
1254.2492,0.071413
1256.1129,0.071133
1257.9765,0.070796
1259.8402,0.070462
1261.7039,0.070111
1263.5675,0.069805
1265.4312,0.069529
1267.2949,0.069261
1269.1585,0.068996
1271.0222,0.068776
1272.8859,0.068533
1274.7495,0.068260
1276.6132,0.068060
1278.4769,0.068020
1280.3405,0.068032
1282.2042,0.067930
1284.0679,0.067873
1285.9316,0.067919
1287.7952,0.068048
1289.6589,0.068388
1291.5226,0.068818
1293.3862,0.069242
1295.2499,0.069760
1297.1136,0.070258
1298.9772,0.070838
1300.8409,0.071479
1302.7046,0.072126
1304.5682,0.072787
1306.4319,0.073291
1308.2956,0.073751
1310.1592,0.074271
1312.0229,0.074839
1313.8866,0.075250
1315.7503,0.075261
1317.6139,0.075171
1319.4776,0.074960
1321.3413,0.074504
1323.2049,0.074023
1325.0686,0.073596
1326.9323,0.073256
1328.7959,0.073092
1330.6596,0.073154
1332.5233,0.073441
1334.3869,0.073688
1336.2506,0.073923
1338.1143,0.074618
1339.9780,0.075710
1341.8416,0.076295
1343.7053,0.076447
1345.5690,0.076515
1347.4326,0.076653
1349.2963,0.076741
1351.1600,0.076824
1353.0236,0.077031
1354.8873,0.077218
1356.7510,0.077329
1358.6146,0.077575
1360.4783,0.078300
1362.3420,0.079712
1364.2056,0.080860
1366.0693,0.081448
1367.9330,0.082284
1369.7967,0.083122
1371.6603,0.083777
1373.5240,0.085071
1375.3877,0.086515
1377.2513,0.087022
1379.1150,0.087503
1380.9787,0.088005
1382.8423,0.088277
1384.7060,0.088578
1386.5697,0.089480
1388.4333,0.090534
1390.2970,0.090681
1392.1607,0.090873
1394.0244,0.092051
1395.8880,0.093675
1397.7517,0.094656
1399.6154,0.095774
1401.4790,0.096113
1403.3427,0.096263
1405.2064,0.096733
1407.0700,0.096693
1408.9337,0.096269
1410.7974,0.095714
1412.6610,0.094673
1414.5247,0.093369
1416.3884,0.092207
1418.2520,0.091675
1420.1157,0.090748
1421.9794,0.088963
1423.8431,0.087414
1425.7067,0.085876
1427.5704,0.084549
1429.4341,0.083908
1431.2977,0.083204
1433.1614,0.082456
1435.0251,0.082660
1436.8887,0.084242
1438.7524,0.084704
1440.6161,0.084520
1442.4797,0.084689
1444.3434,0.084983
1446.2071,0.085676
1448.0707,0.086556
1449.9344,0.086464
1451.7981,0.085708
1453.6618,0.084997
1455.5254,0.084969
1457.3891,0.085688
1459.2528,0.083972
1461.1164,0.081468
1462.9801,0.079927
1464.8438,0.079350
1466.7074,0.077757
1468.5711,0.075391
1470.4348,0.073532
1472.2984,0.072843
1474.1621,0.071872
1476.0258,0.070363
1477.8895,0.068822
1479.7531,0.067737
1481.6168,0.067289
1483.4805,0.066713
1485.3441,0.066304
1487.2078,0.067120
1489.0715,0.069273
1490.9351,0.071052
1492.7988,0.070999
1494.6625,0.071710
1496.5261,0.075028
1498.3898,0.078214
1500.2535,0.079374
1502.1171,0.079844
1503.9808,0.080680
1505.8445,0.085100
1507.7082,0.093707
1509.5718,0.095608
1511.4355,0.096379
1513.2992,0.098146
1515.1628,0.100101
1517.0265,0.102850
1518.8902,0.104578
1520.7538,0.106718
1522.6175,0.110266
1524.4812,0.111689
1526.3448,0.113506
1528.2085,0.115465
1530.0722,0.116388
1531.9359,0.117569
1533.7995,0.120333
1535.6632,0.121154
1537.5269,0.120833
1539.3905,0.123167
1541.2542,0.127217
1543.1179,0.127532
1544.9815,0.127244
1546.8452,0.126493
1548.7089,0.125952
1550.5725,0.125551
1552.4362,0.124386
1554.2999,0.122948
1556.1635,0.122099
1558.0272,0.122674
1559.8909,0.123409
1561.7546,0.120613
1563.6182,0.118588
1565.4819,0.117091
1567.3456,0.115916
1569.2092,0.115381
1571.0729,0.114586
1572.9366,0.113051
1574.8002,0.112438
1576.6639,0.112744
1578.5276,0.111957
1580.3912,0.110653
1582.2549,0.109948
1584.1186,0.109404
1585.9822,0.108991
1587.8459,0.108574
1589.7096,0.108290
1591.5733,0.108142
1593.4369,0.108069
1595.3006,0.107996
1597.1643,0.108022
1599.0279,0.107836
1600.8916,0.107947
1602.7553,0.108414
1604.6189,0.108956
1606.4826,0.109711
1608.3463,0.110988
1610.2099,0.112214
1612.0736,0.113213
1613.9373,0.114448
1615.8010,0.116883
1617.6646,0.119972
1619.5283,0.121242
1621.3920,0.122419
1623.2556,0.125214
1625.1193,0.127361
1626.9830,0.128456
1628.8466,0.129526
1630.7103,0.129841
1632.5740,0.129855
1634.4376,0.130628
1636.3013,0.131661
1638.1650,0.130690
1640.0286,0.128808
1641.8923,0.127275
1643.7560,0.125958
1645.6197,0.124917
1647.4833,0.123447
1649.3470,0.121139
1651.2107,0.119340
1653.0743,0.118294
1654.9380,0.114964
1656.8017,0.111826
1658.6653,0.109048
1660.5290,0.106156
1662.3927,0.102961
1664.2563,0.099567
1666.1200,0.096278
1667.9837,0.093131
1669.8474,0.089522
1671.7110,0.085858
1673.5747,0.082494
1675.4384,0.078745
1677.3020,0.074671
1679.1657,0.071518
1681.0294,0.067975
1682.8930,0.064133
1684.7567,0.059181
1686.6204,0.055151
1688.4840,0.051881
1690.3477,0.048094
1692.2114,0.044523
1694.0750,0.041376
1695.9387,0.037139
1697.8024,0.033401
1699.6661,0.030255
1701.5297,0.026898
1703.3934,0.025329
1705.2571,0.023582
1707.1207,0.021747
1708.9844,0.020641
1710.8481,0.019617
1712.7117,0.018965
1714.5754,0.017977
1716.4391,0.016459
1718.3027,0.014972
1720.1664,0.014688
1722.0301,0.014585
1723.8937,0.014222
1725.7574,0.013745
1727.6211,0.013367
1729.4848,0.013145
1731.3484,0.013064
1733.2121,0.012179
1735.0758,0.011528
1736.9394,0.012080
1738.8031,0.012210
1740.6668,0.011878
1742.5304,0.011781
1744.3941,0.011672
1746.2578,0.011527
1748.1214,0.010801
1749.9851,0.009605
1751.8488,0.008809
1753.7125,0.008614
1755.5761,0.008104
1757.4398,0.007544
1759.3035,0.007233
1761.1671,0.006710
1763.0308,0.006140
1764.8945,0.006209
1766.7581,0.006172
1768.6218,0.005989
1770.4855,0.005808
1772.3491,0.005156
1774.2128,0.004905
1776.0765,0.005192
1777.9401,0.005342
1779.8038,0.005215
1781.6675,0.004983
1783.5312,0.005030
1785.3948,0.004968
1787.2585,0.005115
1789.1222,0.005258
1790.9858,0.004697
1792.8495,0.003844
1794.7132,0.004001
1796.5768,0.004280
1798.4405,0.004360
1800.3042,0.004174
1802.1678,0.004105
1804.0315,0.004246
1805.8952,0.004294
1807.7589,0.004236
1809.6225,0.004106
1811.4862,0.003813
1813.3499,0.003789
1815.2135,0.003759
1817.0772,0.003559
1818.9409,0.003550
1820.8045,0.003829
1822.6682,0.003860
1824.5319,0.003732
1826.3955,0.003730
1828.2592,0.003771
1830.1229,0.003504
1831.9865,0.003412
1833.8502,0.003531
1835.7139,0.003634
1837.5776,0.003400
1839.4412,0.003256
1841.3049,0.003464
1843.1686,0.003215
1845.0322,0.002672
1846.8959,0.003014
1848.7596,0.003256
1850.6232,0.003144
1852.4869,0.003221
1854.3506,0.003409
1856.2142,0.003242
1858.0779,0.003202
1859.9416,0.003006
1861.8052,0.002825
1863.6689,0.003111
1865.5326,0.003343
1867.3963,0.003105
1869.2599,0.002627
1871.1236,0.002537
1872.9873,0.002515
1874.8509,0.002566
1876.7146,0.002965
1878.5783,0.003066
1880.4419,0.002916
1882.3056,0.002834
1884.1693,0.002765
1886.0329,0.002602
1887.8966,0.002710
1889.7603,0.002783
1891.6240,0.002763
1893.4876,0.002646
1895.3513,0.002664
1897.2150,0.002565
1899.0786,0.002407
1900.9423,0.002547
1902.8060,0.002722
1904.6696,0.002333
1906.5333,0.002277
1908.3970,0.002629
1910.2606,0.002650
1912.1243,0.002391
1913.9880,0.002309
1915.8516,0.002193
1917.7153,0.001575
1919.5790,0.001203
1921.4427,0.001596
1923.3063,0.001729
1925.1700,0.001561
1927.0337,0.001434
1928.8973,0.001829
1930.7610,0.002161
1932.6247,0.001824
1934.4883,0.001454
1936.3520,0.001628
1938.2157,0.001205
1940.0793,0.000715
1941.9430,0.000569
1943.8067,0.000854
1945.6704,0.001249
1947.5340,0.000947
1949.3977,0.000654
1951.2614,0.000820
1953.1250,0.000144
1954.9887,-0.000521
1956.8524,-0.000488
1958.7160,0.000387
1960.5797,0.001071
1962.4434,0.000420
1964.3070,-0.000764
1966.1707,-0.001195
1968.0344,-0.001436
1969.8980,-0.000610
1971.7617,0.000477
1973.6254,-0.000526
1975.4891,-0.003028
1977.3527,-0.003233
1979.2164,-0.000670
1981.0801,0.000677
1982.9437,0.000340
1984.8074,-0.000367
1986.6711,-0.001489
1988.5347,-0.001507
1990.3984,-0.000902
1992.2621,-0.000681
1994.1257,-0.000594
1995.9894,-0.000233
1997.8531,-0.000459
1999.7167,-0.000989
2001.5804,-0.001651
2003.4441,-0.001891
2005.3078,-0.001483
2007.1714,-0.000910
2009.0351,-0.001173
2010.8988,-0.001446
2012.7624,-0.001171
2014.6261,-0.001813
2016.4898,-0.003278
2018.3534,-0.003698
2020.2171,-0.003133
2022.0808,-0.002789
2023.9444,-0.002217
2025.8081,-0.001746
2027.6718,-0.000905
2029.5355,-0.000292
2031.3991,-0.000402
2033.2628,-0.001460
2035.1265,-0.002061
2036.9901,-0.001636
2038.8538,-0.002397
2040.7175,-0.002374
2042.5811,-0.000763
2044.4448,0.000295
2046.3085,0.000858
2048.1721,0.001395
2050.0358,0.001708
2051.8995,0.001851
2053.7631,0.001603
2055.6268,0.001870
2057.4905,0.001821
2059.3542,0.001337
2061.2178,0.001306
2063.0815,0.001874
2064.9452,0.002576
2066.8088,0.002545
2068.6725,0.002286
2070.5362,0.002306
2072.3998,0.002624
2074.2635,0.002555
2076.1272,0.002848
2077.9908,0.003076
2079.8545,0.002562
2081.7182,0.002211
2083.5819,0.001953
2085.4455,0.002131
2087.3092,0.003111
2089.1729,0.003781
2091.0365,0.003112
2092.9002,0.002326
2094.7639,0.002635
2096.6275,0.002734
2098.4912,0.002619
2100.3549,0.002771
2102.2185,0.002614
2104.0822,0.002757
2105.9459,0.003376
2107.8095,0.003680
2109.6732,0.003405
2111.5369,0.002937
2113.4006,0.002663
2115.2642,0.002807
2117.1279,0.003321
2118.9916,0.003455
2120.8552,0.003069
2122.7189,0.002640
2124.5826,0.002532
2126.4462,0.002534
2128.3099,0.002068
2130.1736,0.001535
2132.0372,0.001019
2133.9009,0.000766
2135.7646,0.000985
2137.6282,0.001011
2139.4919,-0.000101
2141.3556,-0.001313
2143.2193,-0.001506
2145.0829,-0.001002
2146.9466,-0.001081
2148.8103,-0.001561
2150.6739,-0.001434
2152.5376,-0.000976
2154.4013,-0.002183
2156.2649,-0.003247
2158.1286,-0.002404
2159.9923,-0.001627
2161.8559,-0.000855
2163.7196,0.000020
2165.5833,-0.000703
2167.4470,-0.000762
2169.3106,0.000770
2171.1743,0.000463
2173.0380,-0.000967
2174.9016,-0.001675
2176.7653,-0.001567
2178.6290,0.000085
2180.4926,0.000576
2182.3563,-0.000031
2184.2200,0.000234
2186.0836,0.000491
2187.9473,0.001374
2189.8110,0.002107
2191.6746,0.001198
2193.5383,0.000835
2195.4020,0.001769
2197.2657,0.001938
2199.1293,0.001812
2200.9930,0.002158
2202.8567,0.001548
2204.7203,0.001405
2206.5840,0.001466
2208.4477,0.001436
2210.3113,0.001633
2212.1750,0.001722
2214.0387,0.002531
2215.9023,0.002955
2217.7660,0.002165
2219.6297,0.002668
2221.4934,0.003354
2223.3570,0.002924
2225.2207,0.002529
2227.0844,0.002672
2228.9480,0.002713
2230.8117,0.002806
2232.6754,0.003350
2234.5390,0.003230
2236.4027,0.002904
2238.2664,0.003402
2240.1300,0.003030
2241.9937,0.002297
2243.8574,0.003010
2245.7210,0.003633
2247.5847,0.003218
2249.4484,0.003390
2251.3121,0.003711
2253.1757,0.003593
2255.0394,0.003310
2256.9031,0.003661
2258.7667,0.004083
2260.6304,0.003797
2262.4941,0.003570
2264.3577,0.003456
2266.2214,0.004059
2268.0851,0.004508
2269.9487,0.004199
2271.8124,0.004334
2273.6761,0.004559
2275.5397,0.004603
2277.4034,0.004668
2279.2671,0.004813
2281.1308,0.005200
2282.9944,0.005470
2284.8581,0.005361
2286.7218,0.005297
2288.5854,0.005520
2290.4491,0.005714
2292.3128,0.005839
2294.1764,0.005731
2296.0401,0.005287
2297.9038,0.005254
2299.7674,0.005492
2301.6311,0.005299
2303.4948,0.004961
2305.3585,0.004919
2307.2221,0.004949
2309.0858,0.005010
2310.9495,0.005302
2312.8131,0.005436
2314.6768,0.005550
2316.5405,0.005863
2318.4041,0.005608
2320.2678,0.005095
2322.1315,0.005174
2323.9951,0.005257
2325.8588,0.004947
2327.7225,0.004567
2329.5861,0.004579
2331.4498,0.004927
2333.3135,0.004778
2335.1772,0.004424
2337.0408,0.004406
2338.9045,0.004675
2340.7682,0.004488
2342.6318,0.004144
2344.4955,0.004029
2346.3592,0.004215
2348.2228,0.004844
2350.0865,0.005093
2351.9502,0.004705
2353.8138,0.004398
2355.6775,0.003905
2357.5412,0.003206
2359.4049,0.003087
2361.2685,0.002972
2363.1322,0.003494
2364.9959,0.003948
2366.8595,0.003518
2368.7232,0.003816
2370.5869,0.004799
2372.4505,0.005300
2374.3142,0.005097
2376.1779,0.005303
2378.0415,0.005617
2379.9052,0.005484
2381.7689,0.005450
2383.6325,0.005824
2385.4962,0.006081
2387.3599,0.006058
2389.2236,0.006046
2391.0872,0.005915
2392.9509,0.005842
2394.8146,0.005933
2396.6782,0.005847
2398.5419,0.005801
2400.4056,0.006066
2402.2692,0.006285
2404.1329,0.006317
2405.9966,0.006211
2407.8602,0.006223
2409.7239,0.006598
2411.5876,0.006619
2413.4512,0.006427
2415.3149,0.006538
2417.1786,0.006368
2419.0423,0.006155
2420.9059,0.006414
2422.7696,0.006542
2424.6333,0.006587
2426.4969,0.006443
2428.3606,0.006520
2430.2243,0.006809
2432.0879,0.006842
2433.9516,0.007046
2435.8153,0.007040
2437.6789,0.006850
2439.5426,0.006890
2441.4063,0.006942
2443.2700,0.006872
2445.1336,0.006848
2446.9973,0.007014
2448.8610,0.007301
2450.7246,0.007542
2452.5883,0.007320
2454.4520,0.007105
2456.3156,0.007387
2458.1793,0.007402
2460.0430,0.007153
2461.9066,0.007289
2463.7703,0.007538
2465.6340,0.007523
2467.4976,0.007506
2469.3613,0.007718
2471.2250,0.007738
2473.0887,0.007517
2474.9523,0.007500
2476.8160,0.007640
2478.6797,0.007695
2480.5433,0.007855
2482.4070,0.007883
2484.2707,0.007609
2486.1343,0.007950
2487.9980,0.008488
2489.8617,0.008194
2491.7253,0.007857
2493.5890,0.007873
2495.4527,0.007936
2497.3164,0.008253
2499.1800,0.008510
2501.0437,0.008262
2502.9074,0.008099
2504.7710,0.008513
2506.6347,0.008848
2508.4984,0.008620
2510.3620,0.008693
2512.2257,0.009058
2514.0894,0.008874
2515.9530,0.008523
2517.8167,0.008348
2519.6804,0.008651
2521.5440,0.008800
2523.4077,0.008559
2525.2714,0.008674
2527.1351,0.009000
2528.9987,0.009407
2530.8624,0.009456
2532.7261,0.009035
2534.5897,0.008794
2536.4534,0.009038
2538.3171,0.009304
2540.1807,0.009513
2542.0444,0.009773
2543.9081,0.009874
2545.7717,0.009689
2547.6354,0.009678
2549.4991,0.009846
2551.3627,0.009976
2553.2264,0.010121
2555.0901,0.010058
2556.9538,0.009890
2558.8174,0.009928
2560.6811,0.010014
2562.5448,0.009933
2564.4084,0.010016
2566.2721,0.010384
2568.1358,0.010620
2569.9994,0.010603
2571.8631,0.010740
2573.7268,0.011032
2575.5904,0.011054
2577.4541,0.010924
2579.3178,0.010801
2581.1815,0.010921
2583.0451,0.011242
2584.9088,0.011512
2586.7725,0.011746
2588.6361,0.011601
2590.4998,0.011457
2592.3635,0.011846
2594.2271,0.012010
2596.0908,0.011963
2597.9545,0.012155
2599.8181,0.012437
2601.6818,0.012436
2603.5455,0.012277
2605.4091,0.012548
2607.2728,0.013058
2609.1365,0.013213
2611.0002,0.013265
2612.8638,0.013368
2614.7275,0.013458
2616.5912,0.013561
2618.4548,0.013582
2620.3185,0.013493
2622.1822,0.013566
2624.0458,0.013983
2625.9095,0.014316
2627.7732,0.014356
2629.6368,0.014448
2631.5005,0.014542
2633.3642,0.014527
2635.2279,0.014676
2637.0915,0.014968
2638.9552,0.015304
2640.8189,0.015457
2642.6825,0.015470
2644.5462,0.015670
2646.4099,0.015736
2648.2735,0.015672
2650.1372,0.015926
2652.0009,0.016206
2653.8645,0.016333
2655.7282,0.016396
2657.5919,0.016502
2659.4555,0.016706
2661.3192,0.016818
2663.1829,0.016819
2665.0466,0.016790
2666.9102,0.016798
2668.7739,0.016936
2670.6376,0.017113
2672.5012,0.017159
2674.3649,0.017236
2676.2286,0.017371
2678.0922,0.017658
2679.9559,0.017984
2681.8196,0.017954
2683.6832,0.017861
2685.5469,0.018075
2687.4106,0.018278
2689.2742,0.018332
2691.1379,0.018485
2693.0016,0.018830
2694.8653,0.019138
2696.7289,0.019169
2698.5926,0.019220
2700.4563,0.019422
2702.3199,0.019582
2704.1836,0.019747
2706.0473,0.019830
2707.9109,0.019801
2709.7746,0.019905
2711.6383,0.020149
2713.5019,0.020313
2715.3656,0.020523
2717.2293,0.020759
2719.0930,0.020677
2720.9566,0.020776
2722.8203,0.021175
2724.6840,0.021399
2726.5476,0.021506
2728.4113,0.021593
2730.2750,0.021784
2732.1386,0.022104
2734.0023,0.022217
2735.8660,0.022073
2737.7296,0.022155
2739.5933,0.022407
2741.4570,0.022593
2743.3206,0.022768
2745.1843,0.022906
2747.0480,0.023240
2748.9117,0.023452
2750.7753,0.023353
2752.6390,0.023527
2754.5027,0.023818
2756.3663,0.023927
2758.2300,0.023971
2760.0937,0.024141
2761.9573,0.024424
2763.8210,0.024613
2765.6847,0.024753
2767.5483,0.024894
2769.4120,0.025271
2771.2757,0.025576
2773.1394,0.025474
2775.0030,0.025640
2776.8667,0.026035
2778.7304,0.026092
2780.5940,0.026234
2782.4577,0.026597
2784.3214,0.026800
2786.1850,0.026988
2788.0487,0.027342
2789.9124,0.027663
2791.7760,0.027899
2793.6397,0.028123
2795.5034,0.028313
2797.3670,0.028545
2799.2307,0.028726
2801.0944,0.028790
2802.9581,0.028930
2804.8217,0.029302
2806.6854,0.029768
2808.5491,0.029996
2810.4127,0.030185
2812.2764,0.030500
2814.1401,0.030743
2816.0037,0.031077
2817.8674,0.031481
2819.7311,0.031704
2821.5947,0.031845
2823.4584,0.032186
2825.3221,0.032490
2827.1857,0.032659
2829.0494,0.032828
2830.9131,0.033262
2832.7768,0.033994
2834.6404,0.034376
2836.5041,0.034824
2838.3678,0.035647
2840.2314,0.036272
2842.0951,0.036723
2843.9588,0.037204
2845.8224,0.037889
2847.6861,0.038876
2849.5498,0.039780
2851.4134,0.040361
2853.2771,0.040650
2855.1408,0.040745
2857.0045,0.040928
2858.8681,0.041181
2860.7318,0.041261
2862.5955,0.041158
2864.4591,0.041165
2866.3228,0.041662
2868.1865,0.042126
2870.0501,0.042469
2871.9138,0.043091
2873.7775,0.043371
2875.6411,0.043338
2877.5048,0.043593
2879.3685,0.043758
2881.2321,0.043684
2883.0958,0.043692
2884.9595,0.043836
2886.8232,0.044074
2888.6868,0.044339
2890.5505,0.044428
2892.4142,0.044567
2894.2778,0.044781
2896.1415,0.044996
2898.0052,0.045578
2899.8688,0.046195
2901.7325,0.046644
2903.5962,0.047172
2905.4598,0.047461
2907.3235,0.047815
2909.1872,0.048684
2911.0509,0.049377
2912.9145,0.049942
2914.7782,0.050803
2916.6419,0.051590
2918.5055,0.052247
2920.3692,0.052728
2922.2329,0.053049
2924.0965,0.053336
2925.9602,0.053522
2927.8239,0.053440
2929.6875,0.053294
2931.5512,0.053127
2933.4149,0.052995
2935.2785,0.052761
2937.1422,0.051968
2939.0059,0.051312
2940.8696,0.051235
2942.7332,0.051057
2944.5969,0.050585
2946.4606,0.050151
2948.3242,0.050054
2950.1879,0.050025
2952.0516,0.049830
2953.9152,0.049854
2955.7789,0.050090
2957.6426,0.050128
2959.5062,0.050080
2961.3699,0.049810
2963.2336,0.049429
2965.0972,0.049367
2966.9609,0.049172
2968.8246,0.048954
2970.6883,0.048931
2972.5519,0.048701
2974.4156,0.048564
2976.2793,0.048486
2978.1429,0.048168
2980.0066,0.047827
2981.8703,0.047537
2983.7339,0.047207
2985.5976,0.047032
2987.4613,0.047012
2989.3249,0.046919
2991.1886,0.046528
2993.0523,0.046024
2994.9160,0.045897
2996.7796,0.046046
2998.6433,0.046140
3000.5070,0.046360
3002.3706,0.046447
3004.2343,0.046385
3006.0980,0.046457
3007.9616,0.046678
3009.8253,0.046958
3011.6890,0.047509
3013.5526,0.048135
3015.4163,0.048225
3017.2800,0.048300
3019.1436,0.048702
3021.0073,0.048902
3022.8710,0.049209
3024.7347,0.049755
3026.5983,0.050071
3028.4620,0.050433
3030.3257,0.051101
3032.1893,0.051417
3034.0530,0.051566
3035.9167,0.052140
3037.7803,0.052639
3039.6440,0.053069
3041.5077,0.053498
3043.3713,0.053768
3045.2350,0.054300
3047.0987,0.054835
3048.9624,0.055171
3050.8260,0.055619
3052.6897,0.056078
3054.5534,0.056339
3056.4170,0.056822
3058.2807,0.057476
3060.1444,0.057732
3062.0080,0.057825
3063.8717,0.058298
3065.7354,0.058798
3067.5990,0.059000
3069.4627,0.059166
3071.3264,0.059688
3073.1900,0.059972
3075.0537,0.059774
3076.9174,0.059824
3078.7811,0.060207
3080.6447,0.060461
3082.5084,0.060698
3084.3721,0.061193
3086.2357,0.061541
3088.0994,0.061551
3089.9631,0.061865
3091.8267,0.062228
3093.6904,0.062082
3095.5541,0.062022
3097.4177,0.062385
3099.2814,0.062465
3101.1451,0.062699
3103.0087,0.063119
3104.8724,0.063316
3106.7361,0.063652
3108.5998,0.064013
3110.4634,0.064124
3112.3271,0.064189
3114.1908,0.064318
3116.0544,0.064827
3117.9181,0.065588
3119.7818,0.066378
3121.6454,0.066873
3123.5091,0.067019
3125.3728,0.067110
3127.2364,0.067279
3129.1001,0.067442
3130.9638,0.067941
3132.8275,0.068856
3134.6911,0.069119
3136.5548,0.069059
3138.4185,0.069590
3140.2821,0.070169
3142.1458,0.070706
3144.0095,0.071027
3145.8731,0.071549
3147.7368,0.072419
3149.6005,0.072970
3151.4641,0.073332
3153.3278,0.073895
3155.1915,0.074344
3157.0551,0.074961
3158.9188,0.075514
3160.7825,0.075786
3162.6462,0.076117
3164.5098,0.076712
3166.3735,0.077162
3168.2372,0.077537
3170.1008,0.078033
3171.9645,0.078376
3173.8282,0.078792
3175.6918,0.079373
3177.5555,0.079877
3179.4192,0.080622
3181.2828,0.081161
3183.1465,0.081526
3185.0102,0.082267
3186.8739,0.082673
3188.7375,0.082526
3190.6012,0.082998
3192.4649,0.083676
3194.3285,0.084205
3196.1922,0.084758
3198.0559,0.085123
3199.9195,0.085381
3201.7832,0.085692
3203.6469,0.085687
3205.5105,0.085896
3207.3742,0.086329
3209.2379,0.086572
3211.1015,0.086732
3212.9652,0.086767
3214.8289,0.086886
3216.6926,0.087440
3218.5562,0.087871
3220.4199,0.087903
3222.2836,0.087778
3224.1472,0.088224
3226.0109,0.088779
3227.8746,0.088864
3229.7382,0.088901
3231.6019,0.089113
3233.4656,0.089331
3235.3292,0.089770
3237.1929,0.089928
3239.0566,0.090176
3240.9202,0.090671
3242.7839,0.090669
3244.6476,0.090376
3246.5113,0.090734
3248.3749,0.091062
3250.2386,0.090884
3252.1023,0.091021
3253.9659,0.091824
3255.8296,0.092342
3257.6933,0.092336
3259.5569,0.092241
3261.4206,0.092324
3263.2843,0.092164
3265.1479,0.092062
3267.0116,0.092084
3268.8753,0.092163
3270.7390,0.092375
3272.6026,0.092603
3274.4663,0.092767
3276.3300,0.092977
3278.1936,0.092671
3280.0573,0.092300
3281.9210,0.091881
3283.7846,0.091904
3285.6483,0.092122
3287.5120,0.091543
3289.3756,0.090952
3291.2393,0.091054
3293.1030,0.091032
3294.9666,0.090878
3296.8303,0.090437
3298.6940,0.089912
3300.5577,0.089549
3302.4213,0.089557
3304.2850,0.089282
3306.1487,0.088938
3308.0123,0.088729
3309.8760,0.088714
3311.7397,0.088625
3313.6033,0.088322
3315.4670,0.087712
3317.3307,0.087082
3319.1943,0.086839
3321.0580,0.086773
3322.9217,0.086678
3324.7854,0.086648
3326.6490,0.086480
3328.5127,0.086550
3330.3764,0.086166
3332.2400,0.085364
3334.1037,0.085158
3335.9674,0.085135
3337.8310,0.084929
3339.6947,0.084911
3341.5584,0.084570
3343.4220,0.084430
3345.2857,0.084168
3347.1494,0.083886
3349.0130,0.083737
3350.8767,0.083352
3352.7404,0.082872
3354.6041,0.082869
3356.4677,0.082865
3358.3314,0.082235
3360.1951,0.081639
3362.0587,0.081492
3363.9224,0.081547
3365.7861,0.081823
3367.6497,0.080981
3369.5134,0.080047
3371.3771,0.080301
3373.2407,0.080458
3375.1044,0.079879
3376.9681,0.079104
3378.8317,0.078286
3380.6954,0.078173
3382.5591,0.078336
3384.4228,0.078142
3386.2864,0.077721
3388.1501,0.077572
3390.0138,0.077625
3391.8774,0.077086
3393.7411,0.076026
3395.6048,0.075916
3397.4684,0.076117
3399.3321,0.076001
3401.1958,0.075156
3403.0594,0.074548
3404.9231,0.074701
3406.7868,0.074523
3408.6505,0.073523
3410.5141,0.072923
3412.3778,0.072504
3414.2415,0.072490
3416.1051,0.072621
3417.9688,0.072073
3419.8325,0.071356
3421.6961,0.071144
3423.5598,0.070774
3425.4235,0.070398
3427.2871,0.069358
3429.1508,0.068647
3431.0145,0.068603
3432.8781,0.068189
3434.7418,0.067644
3436.6055,0.067372
3438.4692,0.066889
3440.3328,0.066457
3442.1965,0.066320
3444.0602,0.066054
3445.9238,0.065403
3447.7875,0.064602
3449.6512,0.064172
3451.5148,0.063928
3453.3785,0.063135
3455.2422,0.062175
3457.1058,0.061936
3458.9695,0.061871
3460.8332,0.060836
3462.6969,0.060035
3464.5605,0.059559
3466.4242,0.058791
3468.2879,0.058037
3470.1515,0.057441
3472.0152,0.056919
3473.8789,0.056860
3475.7425,0.056606
3477.6062,0.055741
3479.4699,0.054413
3481.3335,0.053500
3483.1972,0.053542
3485.0609,0.053483
3486.9245,0.052915
3488.7882,0.052232
3490.6519,0.051176
3492.5156,0.050226
3494.3792,0.049162
3496.2429,0.048641
3498.1066,0.048473
3499.9702,0.047758
3501.8339,0.047052
3503.6976,0.046682
3505.5612,0.045651
3507.4249,0.044838
3509.2886,0.044763
3511.1522,0.044290
3513.0159,0.042994
3514.8796,0.041808
3516.7432,0.041141
3518.6069,0.040820
3520.4706,0.040036
3522.3343,0.039138
3524.1979,0.038545
3526.0616,0.037650
3527.9253,0.037234
3529.7889,0.037389
3531.6526,0.036522
3533.5163,0.035478
3535.3799,0.035236
3537.2436,0.034734
3539.1073,0.033603
3540.9709,0.032742
3542.8346,0.032098
3544.6983,0.031635
3546.5620,0.031411
3548.4256,0.030848
3550.2893,0.029362
3552.1530,0.028360
3554.0166,0.027550
3555.8803,0.027001
3557.7440,0.026779
3559.6076,0.026254
3561.4713,0.025407
3563.3350,0.024982
3565.1986,0.024554
3567.0623,0.024125
3568.9260,0.023457
3570.7896,0.022679
3572.6533,0.022314
3574.5170,0.021788
3576.3807,0.020794
3578.2443,0.020110
3580.1080,0.019475
3581.9717,0.018590
3583.8353,0.017767
3585.6990,0.017223
3587.5627,0.016235
3589.4263,0.015953
3591.2900,0.016154
3593.1537,0.015629
3595.0173,0.014841
3596.8810,0.014274
3598.7447,0.013808
3600.6084,0.012975
3602.4720,0.011973
3604.3357,0.011740
3606.1994,0.011195
3608.0630,0.010062
3609.9267,0.009221
3611.7904,0.009154
3613.6540,0.009158
3615.5177,0.008588
3617.3814,0.008107
3619.2450,0.007674
3621.1087,0.006854
3622.9724,0.006308
3624.8360,0.006189
3626.6997,0.006006
3628.5634,0.005188
3630.4271,0.004071
3632.2907,0.004109
3634.1544,0.003660
3636.0181,0.002650
3637.8817,0.002441
3639.7454,0.002271
3641.6091,0.001937
3643.4727,0.001890
3645.3364,0.001778
3647.2001,0.000521
3649.0637,-0.001002
3650.9274,-0.001821
3652.7911,-0.001428
3654.6547,-0.000587
3656.5184,-0.000878
3658.3821,-0.001719
3660.2458,-0.001756
3662.1094,-0.001877
3663.9731,-0.002423
3665.8368,-0.002357
3667.7004,-0.002268
3669.5641,-0.003547
3671.4278,-0.004379
3673.2914,-0.003671
3675.1551,-0.004089
3677.0188,-0.005383
3678.8824,-0.004716
3680.7461,-0.004099
3682.6098,-0.004457
3684.4735,-0.004267
3686.3371,-0.004277
3688.2008,-0.005461
3690.0645,-0.006868
3691.9281,-0.006509
3693.7918,-0.005282
3695.6555,-0.004876
3697.5191,-0.005368
3699.3828,-0.005789
3701.2465,-0.006084
3703.1101,-0.006374
3704.9738,-0.005775
3706.8375,-0.005000
3708.7011,-0.004930
3710.5648,-0.006026
3712.4285,-0.007375
3714.2922,-0.006909
3716.1558,-0.005698
3718.0195,-0.005526
3719.8832,-0.006288
3721.7468,-0.006563
3723.6105,-0.006164
3725.4742,-0.006289
3727.3378,-0.006766
3729.2015,-0.006432
3731.0652,-0.005781
3732.9288,-0.006348
3734.7925,-0.007373
3736.6562,-0.008307
3738.5199,-0.007627
3740.3835,-0.005829
3742.2472,-0.005482
3744.1109,-0.006913
3745.9745,-0.008642
3747.8382,-0.007217
3749.7019,-0.006432
3751.5655,-0.008019
3753.4292,-0.008024
3755.2929,-0.006518
3757.1565,-0.005618
3759.0202,-0.006061
3760.8839,-0.006692
3762.7475,-0.006064
3764.6112,-0.005678
3766.4749,-0.006175
3768.3386,-0.006197
3770.2022,-0.006518
3772.0659,-0.006769
3773.9296,-0.006126
3775.7932,-0.005941
3777.6569,-0.006191
3779.5206,-0.006284
3781.3842,-0.006366
3783.2479,-0.005906
3785.1116,-0.005868
3786.9752,-0.006187
3788.8389,-0.005836
3790.7026,-0.005627
3792.5662,-0.005727
3794.4299,-0.005589
3796.2936,-0.005730
3798.1573,-0.006079
3800.0209,-0.006385
3801.8846,-0.007028
3803.7483,-0.006997
3805.6119,-0.006200
3807.4756,-0.006824
3809.3393,-0.006982
3811.2029,-0.005988
3813.0666,-0.005621
3814.9303,-0.005792
3816.7939,-0.006435
3818.6576,-0.006390
3820.5213,-0.006570
3822.3850,-0.007764
3824.2486,-0.007018
3826.1123,-0.005810
3827.9760,-0.005853
3829.8396,-0.006048
3831.7033,-0.006217
3833.5670,-0.006471
3835.4306,-0.006133
3837.2943,-0.006551
3839.1580,-0.007539
3841.0216,-0.007314
3842.8853,-0.006192
3844.7490,-0.005888
3846.6126,-0.005989
3848.4763,-0.005883
3850.3400,-0.005887
3852.2037,-0.006669
3854.0673,-0.008097
3855.9310,-0.007828
3857.7947,-0.006214
3859.6583,-0.005708
3861.5220,-0.005893
3863.3857,-0.006261
3865.2493,-0.006623
3867.1130,-0.006581
3868.9767,-0.005971
3870.8403,-0.006151
3872.7040,-0.006436
3874.5677,-0.006669
3876.4314,-0.006723
3878.2950,-0.005681
3880.1587,-0.005757
3882.0224,-0.006540
3883.8860,-0.006316
3885.7497,-0.006329
3887.6134,-0.006398
3889.4770,-0.005462
3891.3407,-0.005842
3893.2044,-0.006775
3895.0680,-0.006155
3896.9317,-0.005606
3898.7954,-0.005731
3900.6590,-0.006454
3902.5227,-0.006844
3904.3864,-0.006540
3906.2501,-0.006564
3908.1137,-0.006368
3909.9774,-0.005830
3911.8411,-0.005446
3913.7047,-0.005204
3915.5684,-0.005569
3917.4321,-0.006059
3919.2957,-0.006232
3921.1594,-0.005877
3923.0231,-0.005764
3924.8867,-0.005869
3926.7504,-0.005925
3928.6141,-0.005748
3930.4777,-0.005560
3932.3414,-0.005653
3934.2051,-0.005807
3936.0688,-0.005943
3937.9324,-0.005755
3939.7961,-0.005628
3941.6598,-0.005769
3943.5234,-0.005774
3945.3871,-0.005696
3947.2508,-0.005414
3949.1144,-0.005454
3950.9781,-0.005735
3952.8418,-0.005721
3954.7054,-0.005555
3956.5691,-0.005665
3958.4328,-0.005624
3960.2965,-0.005768
3962.1601,-0.005876
3964.0238,-0.006013
3965.8875,-0.005966
3967.7511,-0.005496
3969.6148,-0.005544
3971.4785,-0.005916
3973.3421,-0.005574
3975.2058,-0.004988
3977.0695,-0.005279
3978.9331,-0.005643
3980.7968,-0.005442
3982.6605,-0.005453
3984.5241,-0.005644
3986.3878,-0.005510
3988.2515,-0.005370
3990.1152,-0.005382
3991.9788,-0.005387
3993.8425,-0.005539
3995.7062,-0.005636
3997.5698,-0.005416
3999.4335,-0.005166
