Wavenumber,Intensity
650.4205,0.046302
652.2841,0.046300
654.1478,0.047400
656.0115,0.045024
657.8751,0.044139
659.7388,0.047356
661.6025,0.047703
663.4661,0.045597
665.3298,0.043074
667.1935,0.039830
669.0571,0.042573
670.9208,0.044785
672.7845,0.044068
674.6481,0.043417
676.5118,0.044266
678.3755,0.044461
680.2392,0.043255
682.1028,0.043263
683.9665,0.042696
685.8302,0.041375
687.6938,0.042570
689.5575,0.043446
691.4212,0.041960
693.2848,0.040966
695.1485,0.041186
697.0122,0.041445
698.8758,0.041283
700.7395,0.040274
702.6032,0.039541
704.4669,0.039460
706.3305,0.039253
708.1942,0.038832
710.0579,0.037938
711.9215,0.037054
713.7852,0.036518
715.6489,0.036168
717.5125,0.036496
719.3762,0.036736
721.2399,0.035715
723.1035,0.034697
724.9672,0.034352
726.8309,0.034145
728.6945,0.034200
730.5582,0.034185
732.4219,0.033300
734.2856,0.032755
736.1492,0.033237
738.0129,0.032945
739.8766,0.032277
741.7402,0.032292
743.6039,0.032301
745.4676,0.032407
747.3312,0.032469
749.1949,0.031667
751.0586,0.030872
752.9222,0.030607
754.7859,0.030650
756.6496,0.030503
758.5132,0.029845
760.3769,0.029455
762.2406,0.029546
764.1043,0.029496
765.9679,0.029172
767.8316,0.028981
769.6953,0.028664
771.5589,0.028472
773.4226,0.028488
775.2863,0.028002
777.1499,0.027495
779.0136,0.027412
780.8773,0.027318
782.7409,0.027165
784.6046,0.027115
786.4683,0.026907
788.3320,0.026521
790.1956,0.026248
792.0593,0.025709
793.9230,0.024990
795.7866,0.024807
797.6503,0.024834
799.5140,0.024685
801.3776,0.024671
803.2413,0.024504
805.1050,0.024253
806.9686,0.024418
808.8323,0.024472
810.6960,0.024224
812.5596,0.024149
814.4233,0.024331
816.2870,0.024309
818.1507,0.023785
820.0143,0.023593
821.8780,0.023577
823.7417,0.023197
825.6053,0.022920
827.4690,0.022647
829.3327,0.022184
831.1963,0.021922
833.0600,0.021746
834.9237,0.021333
836.7873,0.021024
838.6510,0.021005
840.5147,0.020782
842.3784,0.020459
844.2420,0.020203
846.1057,0.019915
847.9694,0.019967
849.8330,0.020228
851.6967,0.020190
853.5604,0.020107
855.4240,0.020022
857.2877,0.019680
859.1514,0.019626
861.0150,0.019918
862.8787,0.020200
864.7424,0.020373
866.6060,0.020434
868.4697,0.020519
870.3334,0.020689
872.1971,0.020717
874.0607,0.020560
875.9244,0.020532
877.7881,0.020616
879.6517,0.020584
881.5154,0.020441
883.3791,0.020334
885.2427,0.020182
887.1064,0.020082
888.9701,0.020216
890.8337,0.020240
892.6974,0.020084
894.5611,0.020130
896.4247,0.020216
898.2884,0.020068
900.1521,0.019897
902.0158,0.019930
903.8794,0.019840
905.7431,0.019669
907.6068,0.019583
909.4704,0.019554
911.3341,0.019728
913.1978,0.020117
915.0614,0.020512
916.9251,0.020673
918.7888,0.020709
920.6524,0.020931
922.5161,0.021112
924.3798,0.021197
926.2435,0.021343
928.1071,0.021428
929.9708,0.021483
931.8345,0.021612
933.6981,0.021679
935.5618,0.021738
937.4255,0.021784
939.2891,0.021942
941.1528,0.022261
943.0165,0.022631
944.8801,0.022900
946.7438,0.023005
948.6075,0.023000
950.4711,0.022918
952.3348,0.022936
954.1985,0.023042
956.0622,0.023297
957.9258,0.023723
959.7895,0.024246
961.6532,0.024919
963.5168,0.025713
965.3805,0.026419
967.2442,0.026840
969.1078,0.027092
970.9715,0.027198
972.8352,0.027060
974.6988,0.026959
976.5625,0.027113
978.4262,0.027350
980.2899,0.027613
982.1535,0.027978
984.0172,0.028405
985.8809,0.028799
987.7445,0.029175
989.6082,0.029602
991.4719,0.030097
993.3355,0.030636
995.1992,0.031181
997.0629,0.031736
998.9265,0.032321
1000.7902,0.032855
1002.6539,0.033466
1004.5175,0.034151
1006.3812,0.034986
1008.2449,0.036002
1010.1086,0.037105
1011.9722,0.038272
1013.8359,0.039590
1015.6996,0.041009
1017.5632,0.042337
1019.4269,0.043474
1021.2906,0.044442
1023.1542,0.045239
1025.0179,0.045927
1026.8816,0.046596
1028.7452,0.047243
1030.6089,0.047772
1032.4726,0.048155
1034.3362,0.048330
1036.1999,0.048354
1038.0636,0.048432
1039.9273,0.048423
1041.7909,0.048338
1043.6546,0.048209
1045.5183,0.047993
1047.3819,0.047870
1049.2456,0.047858
1051.1093,0.047926
1052.9729,0.048117
1054.8366,0.048340
1056.7003,0.048505
1058.5639,0.048640
1060.4276,0.048873
1062.2913,0.049080
1064.1550,0.049302
1066.0186,0.049623
1067.8823,0.049777
1069.7460,0.049787
1071.6096,0.049710
1073.4733,0.049376
1075.3370,0.048920
1077.2006,0.048232
1079.0643,0.047127
1080.9280,0.045949
1082.7916,0.044843
1084.6553,0.043571
1086.5190,0.042262
1088.3826,0.041096
1090.2463,0.040056
1092.1100,0.039193
1093.9737,0.038479
1095.8373,0.037795
1097.7010,0.037214
1099.5647,0.036720
1101.4283,0.036347
1103.2920,0.036032
1105.1557,0.035726
1107.0193,0.035569
1108.8830,0.035480
1110.7467,0.035225
1112.6103,0.034921
1114.4740,0.034814
1116.3377,0.034643
1118.2014,0.034302
1120.0650,0.033949
1121.9287,0.033669
1123.7924,0.033345
1125.6560,0.032977
1127.5197,0.032601
1129.3834,0.032097
1131.2470,0.031586
1133.1107,0.031116
1134.9744,0.030583
1136.8380,0.030040
1138.7017,0.029516
1140.5654,0.029065
1142.4290,0.028657
1144.2927,0.028430
1146.1564,0.028444
1148.0201,0.028490
1149.8837,0.028451
1151.7474,0.028440
1153.6111,0.028453
1155.4747,0.028421
1157.3384,0.028358
1159.2021,0.028236
1161.0657,0.027968
1162.9294,0.027603
1164.7931,0.027208
1166.6567,0.026649
1168.5204,0.026066
1170.3841,0.025404
1172.2477,0.024535
1174.1114,0.023524
1175.9751,0.022544
1177.8388,0.021726
1179.7024,0.021096
1181.5661,0.020683
1183.4298,0.020428
1185.2934,0.020333
1187.1571,0.020379
1189.0208,0.020452
1190.8844,0.020656
1192.7481,0.020928
1194.6118,0.021256
1196.4754,0.021703
1198.3391,0.022159
1200.2028,0.022574
1202.0665,0.023008
1203.9301,0.023474
1205.7938,0.023900
1207.6575,0.024274
1209.5211,0.024608
1211.3848,0.024982
1213.2485,0.025330
1215.1121,0.025647
1216.9758,0.026027
1218.8395,0.026533
1220.7031,0.027075
1222.5668,0.027540
1224.4305,0.028048
1226.2941,0.028586
1228.1578,0.029123
1230.0215,0.029616
1231.8852,0.029880
1233.7488,0.030002
1235.6125,0.030123
1237.4762,0.030233
1239.3398,0.030209
1241.2035,0.030101
1243.0672,0.029973
1244.9308,0.029776
1246.7945,0.029447
1248.6582,0.029059
1250.5218,0.028714
1252.3855,0.028387
1254.2492,0.028025
1256.1129,0.027665
1257.9765,0.027365
1259.8402,0.027124
1261.7039,0.026925
1263.5675,0.026752
1265.4312,0.026590
1267.2949,0.026488
1269.1585,0.026370
1271.0222,0.026233
1272.8859,0.026203
1274.7495,0.026139
1276.6132,0.026040
1278.4769,0.026020
1280.3405,0.026077
1282.2042,0.026065
1284.0679,0.026014
1285.9316,0.026083
1287.7952,0.026193
1289.6589,0.026177
1291.5226,0.026123
1293.3862,0.026197
1295.2499,0.026353
1297.1136,0.026512
1298.9772,0.026704
1300.8409,0.026885
1302.7046,0.026989
1304.5682,0.027225
1306.4319,0.027575
1308.2956,0.027795
1310.1592,0.027814
1312.0229,0.027892
1313.8866,0.028062
1315.7503,0.027977
1317.6139,0.027898
1319.4776,0.027902
1321.3413,0.027708
1323.2049,0.027381
1325.0686,0.027170
1326.9323,0.026993
1328.7959,0.026784
1330.6596,0.026734
1332.5233,0.026692
1334.3869,0.026614
1336.2506,0.026545
1338.1143,0.026688
1339.9780,0.027025
1341.8416,0.027094
1343.7053,0.026936
1345.5690,0.026816
1347.4326,0.026682
1349.2963,0.026571
1351.1600,0.026583
1353.0236,0.026688
1354.8873,0.026828
1356.7510,0.026987
1358.6146,0.027137
1360.4783,0.027549
1362.3420,0.028387
1364.2056,0.029175
1366.0693,0.029693
1367.9330,0.030322
1369.7967,0.030961
1371.6603,0.031478
1373.5240,0.032324
1375.3877,0.033131
1377.2513,0.033388
1379.1150,0.033741
1380.9787,0.033958
1382.8423,0.034050
1384.7060,0.034069
1386.5697,0.034383
1388.4333,0.034880
1390.2970,0.034637
1392.1607,0.034360
1394.0244,0.034648
1395.8880,0.035040
1397.7517,0.035114
1399.6154,0.035216
1401.4790,0.034769
1403.3427,0.034297
1405.2064,0.034181
1407.0700,0.033716
1408.9337,0.033081
1410.7974,0.032603
1412.6610,0.032086
1414.5247,0.031387
1416.3884,0.030976
1418.2520,0.031169
1420.1157,0.031328
1421.9794,0.030782
1423.8431,0.030725
1425.7067,0.030673
1427.5704,0.030581
1429.4341,0.031142
1431.2977,0.031591
1433.1614,0.031686
1435.0251,0.032391
1436.8887,0.034094
1438.7524,0.034653
1440.6161,0.034424
1442.4797,0.034451
1444.3434,0.034403
1446.2071,0.034530
1448.0707,0.034911
1449.9344,0.034777
1451.7981,0.034145
1453.6618,0.033356
1455.5254,0.032993
1457.3891,0.033905
1459.2528,0.033246
1461.1164,0.031755
1462.9801,0.030820
1464.8438,0.030771
1466.7074,0.030218
1468.5711,0.028951
1470.4348,0.027832
1472.2984,0.027634
1474.1621,0.027474
1476.0258,0.026842
1477.8895,0.026152
1479.7531,0.025799
1481.6168,0.025985
1483.4805,0.026007
1485.3441,0.026143
1487.2078,0.027273
1489.0715,0.029341
1490.9351,0.030937
1492.7988,0.031324
1494.6625,0.032184
1496.5261,0.034678
1498.3898,0.036933
1500.2535,0.037991
1502.1171,0.038242
1503.9808,0.038522
1505.8445,0.041711
1507.7082,0.047130
1509.5718,0.047898
1511.4355,0.048389
1513.2992,0.049309
1515.1628,0.050127
1517.0265,0.051122
1518.8902,0.051286
1520.7538,0.052207
1522.6175,0.053476
1524.4812,0.053500
1526.3448,0.054487
1528.2085,0.055037
1530.0722,0.054994
1531.9359,0.055342
1533.7995,0.056636
1535.6632,0.056090
1537.5269,0.054941
1539.3905,0.055849
1541.2542,0.057122
1543.1179,0.056343
1544.9815,0.055636
1546.8452,0.054323
1548.7089,0.052991
1550.5725,0.051854
1552.4362,0.050307
1554.2999,0.048774
1556.1635,0.046965
1558.0272,0.046443
1559.8909,0.047039
1561.7546,0.044794
1563.6182,0.042967
1565.4819,0.041799
1567.3456,0.040506
1569.2092,0.039924
1571.0729,0.039175
1572.9366,0.037614
1574.8002,0.037010
1576.6639,0.037395
1578.5276,0.036640
1580.3912,0.035781
1582.2549,0.035664
1584.1186,0.035854
1585.9822,0.036067
1587.8459,0.036287
1589.7096,0.036784
1591.5733,0.037610
1593.4369,0.038599
1595.3006,0.039614
1597.1643,0.040573
1599.0279,0.041451
1600.8916,0.042572
1602.7553,0.044014
1604.6189,0.045466
1606.4826,0.047102
1608.3463,0.049112
1610.2099,0.050829
1612.0736,0.052144
1613.9373,0.053386
1615.8010,0.055875
1617.6646,0.058616
1619.5283,0.059189
1621.3920,0.059791
1623.2556,0.061735
1625.1193,0.063024
1626.9830,0.063716
1628.8466,0.064526
1630.7103,0.064337
1632.5740,0.063507
1634.4376,0.063674
1636.3013,0.064709
1638.1650,0.064182
1640.0286,0.063093
1641.8923,0.061725
1643.7560,0.060310
1645.6197,0.059787
1647.4833,0.059361
1649.3470,0.057688
1651.2107,0.055874
1653.0743,0.055774
1654.9380,0.054526
1656.8017,0.052164
1658.6653,0.049966
1660.5290,0.047975
1662.3927,0.046209
1664.2563,0.044318
1666.1200,0.042138
1667.9837,0.040339
1669.8474,0.038765
1671.7110,0.036952
1673.5747,0.034992
1675.4384,0.033225
1677.3020,0.031257
1679.1657,0.029269
1681.0294,0.027381
1682.8930,0.025451
1684.7567,0.023296
1686.6204,0.021346
1688.4840,0.019388
1690.3477,0.017242
1692.2114,0.015098
1694.0750,0.013098
1695.9387,0.011065
1697.8024,0.009143
1699.6661,0.007215
1701.5297,0.005868
1703.3934,0.004651
1705.2571,0.003623
1707.1207,0.002830
1708.9844,0.002008
1710.8481,0.001246
1712.7117,0.000875
1714.5754,0.000509
1716.4391,-0.000021
1718.3027,-0.000341
1720.1664,-0.000460
1722.0301,-0.000828
1723.8937,-0.001151
1725.7574,-0.001263
1727.6211,-0.001492
1729.4848,-0.001795
1731.3484,-0.001813
1733.2121,-0.002248
1735.0758,-0.002338
1736.9394,-0.002328
1738.8031,-0.002578
1740.6668,-0.002693
1742.5304,-0.002825
1744.3941,-0.002873
1746.2578,-0.002935
1748.1214,-0.003231
1749.9851,-0.003535
1751.8488,-0.003693
1753.7125,-0.003826
1755.5761,-0.004472
1757.4398,-0.004723
1759.3035,-0.004547
1761.1671,-0.004639
1763.0308,-0.004630
1764.8945,-0.004647
1766.7581,-0.005136
1768.6218,-0.005234
1770.4855,-0.005083
1772.3491,-0.005091
1774.2128,-0.005038
1776.0765,-0.005052
1777.9401,-0.005018
1779.8038,-0.004954
1781.6675,-0.004829
1783.5312,-0.004927
1785.3948,-0.005015
1787.2585,-0.004823
1789.1222,-0.004771
1790.9858,-0.005197
1792.8495,-0.005337
1794.7132,-0.005057
1796.5768,-0.005206
1798.4405,-0.005244
1800.3042,-0.005107
1802.1678,-0.005137
1804.0315,-0.005234
1805.8952,-0.005341
1807.7589,-0.005219
1809.6225,-0.005161
1811.4862,-0.005074
1813.3499,-0.004966
1815.2135,-0.005286
1817.0772,-0.005376
1818.9409,-0.004989
1820.8045,-0.004927
1822.6682,-0.005068
1824.5319,-0.005303
1826.3955,-0.005189
1828.2592,-0.005055
1830.1229,-0.005241
1831.9865,-0.005118
1833.8502,-0.005035
1835.7139,-0.005151
1837.5776,-0.005064
1839.4412,-0.004753
1841.3049,-0.004784
1843.1686,-0.005060
1845.0322,-0.004904
1846.8959,-0.004511
1848.7596,-0.004511
1850.6232,-0.004535
1852.4869,-0.004506
1854.3506,-0.004798
1856.2142,-0.004910
1858.0779,-0.004866
1859.9416,-0.004900
1861.8052,-0.004685
1863.6689,-0.004521
1865.5326,-0.004642
1867.3963,-0.004599
1869.2599,-0.004436
1871.1236,-0.004519
1872.9873,-0.004754
1874.8509,-0.004936
1876.7146,-0.004516
1878.5783,-0.004303
1880.4419,-0.004484
1882.3056,-0.004752
1884.1693,-0.004565
1886.0329,-0.004181
1887.8966,-0.004102
1889.7603,-0.004136
1891.6240,-0.004241
1893.4876,-0.004314
1895.3513,-0.004221
1897.2150,-0.004481
1899.0786,-0.004351
1900.9423,-0.003905
1902.8060,-0.004233
1904.6696,-0.004568
1906.5333,-0.004217
1908.3970,-0.004110
1910.2606,-0.004412
1912.1243,-0.004447
1913.9880,-0.004289
1915.8516,-0.004309
1917.7153,-0.004190
1919.5790,-0.003931
1921.4427,-0.004172
1923.3063,-0.004068
1925.1700,-0.003492
1927.0337,-0.003074
1928.8973,-0.003170
1930.7610,-0.003763
1932.6247,-0.003988
1934.4883,-0.003943
1936.3520,-0.003871
1938.2157,-0.003824
1940.0793,-0.003200
1941.9430,-0.002242
1943.8067,-0.002291
1945.6704,-0.003468
1947.5340,-0.004041
1949.3977,-0.003581
1951.2614,-0.003220
1953.1250,-0.002628
1954.9887,-0.002116
1956.8524,-0.002279
1958.7160,-0.001895
1960.5797,-0.001041
1962.4434,-0.001378
1964.3070,-0.001947
1966.1707,-0.001621
1968.0344,-0.000959
1969.8980,-0.001017
1971.7617,-0.000592
1973.6254,-0.000623
1975.4891,-0.001099
1977.3527,0.000035
1979.2164,0.001098
1981.0801,0.000974
1982.9437,0.000416
1984.8074,-0.000068
1986.6711,-0.000111
1988.5347,0.000064
1990.3984,-0.001095
1992.2621,-0.001972
1994.1257,-0.001808
1995.9894,-0.001303
1997.8531,-0.000708
1999.7167,-0.000059
2001.5804,-0.000307
2003.4441,-0.001940
2005.3078,-0.003071
2007.1714,-0.001482
2009.0351,0.000159
2010.8988,-0.000300
2012.7624,-0.000789
2014.6261,-0.000797
2016.4898,-0.001093
2018.3534,-0.000638
2020.2171,-0.000178
2022.0808,0.000159
2023.9444,0.001140
2025.8081,-0.000048
2027.6718,-0.000798
2029.5355,-0.000180
2031.3991,-0.000218
2033.2628,0.000849
2035.1265,0.001792
2036.9901,0.002502
2038.8538,0.002510
2040.7175,0.001136
2042.5811,0.000222
2044.4448,0.000359
2046.3085,0.000052
2048.1721,0.000403
2050.0358,0.001440
2051.8995,0.001358
2053.7631,0.000756
2055.6268,0.000337
2057.4905,0.000814
2059.3542,0.000767
2061.2178,0.000376
2063.0815,0.000669
2064.9452,0.000085
2066.8088,-0.000968
2068.6725,-0.000901
2070.5362,-0.000165
2072.3998,0.000154
2074.2635,0.000005
2076.1272,-0.000284
2077.9908,-0.000549
2079.8545,-0.000560
2081.7182,-0.000342
2083.5819,-0.000460
2085.4455,-0.000928
2087.3092,-0.001060
2089.1729,-0.001101
2091.0365,-0.001596
2092.9002,-0.001678
2094.7639,-0.001356
2096.6275,-0.001089
2098.4912,-0.001256
2100.3549,-0.001823
2102.2185,-0.002223
2104.0822,-0.002076
2105.9459,-0.001515
2107.8095,-0.001405
2109.6732,-0.001503
2111.5369,-0.001616
2113.4006,-0.001898
2115.2642,-0.002197
2117.1279,-0.002209
2118.9916,-0.002056
2120.8552,-0.001802
2122.7189,-0.001195
2124.5826,-0.001202
2126.4462,-0.001909
2128.3099,-0.002481
2130.1736,-0.002798
2132.0372,-0.002952
2133.9009,-0.002578
2135.7646,-0.001752
2137.6282,-0.001833
2139.4919,-0.002034
2141.3556,-0.001740
2143.2193,-0.001564
2145.0829,-0.001617
2146.9466,-0.001675
2148.8103,-0.001538
2150.6739,-0.001485
2152.5376,-0.000967
2154.4013,-0.000123
2156.2649,0.000220
2158.1286,0.001412
2159.9923,0.002813
2161.8559,0.003342
2163.7196,0.003656
2165.5833,0.003123
2167.4470,0.001619
2169.3106,0.000822
2171.1743,0.000812
2173.0380,0.000480
2174.9016,0.000230
2176.7653,0.000077
2178.6290,-0.000013
2180.4926,0.000898
2182.3563,0.002006
2184.2200,0.001114
2186.0836,-0.000445
2187.9473,-0.000933
2189.8110,-0.000494
2191.6746,-0.000054
2193.5383,-0.000388
2195.4020,-0.000373
2197.2657,0.000542
2199.1293,0.001243
2200.9930,0.000751
2202.8567,0.000243
2204.7203,0.000167
2206.5840,-0.000010
2208.4477,-0.000184
2210.3113,0.000229
2212.1750,0.000788
2214.0387,0.000539
2215.9023,-0.000190
2217.7660,-0.000848
2219.6297,-0.000871
2221.4934,-0.000121
2223.3570,0.000131
2225.2207,-0.000736
2227.0844,-0.001150
2228.9480,-0.000773
2230.8117,-0.000172
2232.6754,-0.000216
2234.5390,-0.000838
2236.4027,-0.000448
2238.2664,0.000010
2240.1300,-0.000871
2241.9937,-0.001723
2243.8574,-0.001350
2245.7210,-0.000884
2247.5847,-0.000965
2249.4484,-0.000988
2251.3121,-0.000870
2253.1757,-0.001022
2255.0394,-0.001109
2256.9031,-0.000924
2258.7667,-0.001312
2260.6304,-0.001651
2262.4941,-0.001623
2264.3577,-0.001335
2266.2214,-0.000813
2268.0851,-0.000473
2269.9487,-0.000564
2271.8124,-0.000826
2273.6761,-0.000718
2275.5397,-0.001135
2277.4034,-0.001386
2279.2671,-0.001054
2281.1308,-0.000907
2282.9944,-0.000951
2284.8581,-0.000978
2286.7218,-0.001152
2288.5854,-0.001199
2290.4491,-0.000917
2292.3128,-0.001197
2294.1764,-0.001732
2296.0401,-0.002049
2297.9038,-0.002223
2299.7674,-0.002272
2301.6311,-0.002155
2303.4948,-0.002107
2305.3585,-0.002306
2307.2221,-0.002184
2309.0858,-0.001820
2310.9495,-0.001924
2312.8131,-0.002274
2314.6768,-0.002426
2316.5405,-0.002542
2318.4041,-0.002420
2320.2678,-0.002080
2322.1315,-0.001970
2323.9951,-0.001843
2325.8588,-0.002098
2327.7225,-0.002805
2329.5861,-0.003189
2331.4498,-0.003299
2333.3135,-0.003004
2335.1772,-0.002681
2337.0408,-0.003088
2338.9045,-0.003496
2340.7682,-0.002985
2342.6318,-0.002389
2344.4955,-0.002619
2346.3592,-0.002715
2348.2228,-0.002698
2350.0865,-0.003077
2351.9502,-0.003671
2353.8138,-0.004091
2355.6775,-0.003800
2357.5412,-0.003325
2359.4049,-0.002722
2361.2685,-0.001850
2363.1322,-0.002205
2364.9959,-0.003018
2366.8595,-0.002487
2368.7232,-0.001828
2370.5869,-0.002303
2372.4505,-0.002660
2374.3142,-0.002495
2376.1779,-0.002552
2378.0415,-0.002955
2379.9052,-0.003247
2381.7689,-0.003202
2383.6325,-0.003063
2385.4962,-0.002939
2387.3599,-0.002931
2389.2236,-0.003086
2391.0872,-0.003013
2392.9509,-0.002867
2394.8146,-0.003072
2396.6782,-0.003294
2398.5419,-0.003286
2400.4056,-0.003212
2402.2692,-0.003096
2404.1329,-0.002968
2405.9966,-0.002778
2407.8602,-0.002609
2409.7239,-0.002543
2411.5876,-0.002603
2413.4512,-0.002653
2415.3149,-0.002795
2417.1786,-0.003036
2419.0423,-0.002916
2420.9059,-0.002377
2422.7696,-0.002229
2424.6333,-0.002467
2426.4969,-0.002470
2428.3606,-0.002470
2430.2243,-0.002527
2432.0879,-0.002391
2433.9516,-0.002104
2435.8153,-0.002004
2437.6789,-0.002026
2439.5426,-0.001977
2441.4063,-0.002128
2443.2700,-0.002151
2445.1336,-0.002073
2446.9973,-0.002190
2448.8610,-0.002161
2450.7246,-0.001848
2452.5883,-0.001800
2454.4520,-0.001988
2456.3156,-0.001929
2458.1793,-0.001668
2460.0430,-0.001641
2461.9066,-0.001765
2463.7703,-0.001750
2465.6340,-0.001814
2467.4976,-0.001723
2469.3613,-0.001535
2471.2250,-0.001653
2473.0887,-0.001739
2474.9523,-0.001845
2476.8160,-0.001979
2478.6797,-0.002013
2480.5433,-0.002041
2482.4070,-0.001992
2484.2707,-0.001911
2486.1343,-0.001763
2487.9980,-0.001615
2489.8617,-0.001493
2491.7253,-0.001360
2493.5890,-0.001427
2495.4527,-0.001528
2497.3164,-0.001507
2499.1800,-0.001524
2501.0437,-0.001662
2502.9074,-0.001751
2504.7710,-0.001719
2506.6347,-0.001727
2508.4984,-0.001720
2510.3620,-0.001397
2512.2257,-0.001058
2514.0894,-0.001050
2515.9530,-0.001224
2517.8167,-0.001301
2519.6804,-0.001159
2521.5440,-0.001072
2523.4077,-0.001324
2525.2714,-0.001225
2527.1351,-0.000904
2528.9987,-0.000977
2530.8624,-0.001157
2532.7261,-0.001155
2534.5897,-0.001353
2536.4534,-0.001540
2538.3171,-0.001333
2540.1807,-0.001129
2542.0444,-0.001135
2543.9081,-0.000927
2545.7717,-0.000704
2547.6354,-0.000725
2549.4991,-0.000892
2551.3627,-0.000751
2553.2264,-0.000688
2555.0901,-0.001091
2556.9538,-0.001087
2558.8174,-0.000700
2560.6811,-0.000818
2562.5448,-0.000963
2564.4084,-0.000811
2566.2721,-0.000629
2568.1358,-0.000758
2569.9994,-0.000938
2571.8631,-0.000806
2573.7268,-0.000392
2575.5904,-0.000574
2577.4541,-0.000717
2579.3178,-0.000430
2581.1815,-0.000386
2583.0451,-0.000545
2584.9088,-0.000524
2586.7725,-0.000287
2588.6361,-0.000079
2590.4998,-0.000219
2592.3635,-0.000192
2594.2271,-0.000099
2596.0908,-0.000139
2597.9545,-0.000214
2599.8181,-0.000156
2601.6818,-0.000073
2603.5455,0.000059
2605.4091,0.000032
2607.2728,0.000206
2609.1365,0.000278
2611.0002,0.000166
2612.8638,0.000143
2614.7275,0.000124
2616.5912,0.000246
2618.4548,0.000181
2620.3185,0.000147
2622.1822,0.000247
2624.0458,0.000255
2625.9095,0.000290
2627.7732,0.000457
2629.6368,0.000611
2631.5005,0.000532
2633.3642,0.000434
2635.2279,0.000423
2637.0915,0.000498
2638.9552,0.000588
2640.8189,0.000500
2642.6825,0.000556
2644.5462,0.000767
2646.4099,0.000688
2648.2735,0.000527
2650.1372,0.000495
2652.0009,0.000619
2653.8645,0.000663
2655.7282,0.000615
2657.5919,0.000509
2659.4555,0.000491
2661.3192,0.000547
2663.1829,0.000422
2665.0466,0.000294
2666.9102,0.000368
2668.7739,0.000382
2670.6376,0.000357
2672.5012,0.000419
2674.3649,0.000548
2676.2286,0.000547
2678.0922,0.000485
2679.9559,0.000743
2681.8196,0.000858
2683.6832,0.000696
2685.5469,0.000776
2687.4106,0.000861
2689.2742,0.000854
2691.1379,0.000856
2693.0016,0.000971
2694.8653,0.000997
2696.7289,0.000933
2698.5926,0.001035
2700.4563,0.001096
2702.3199,0.001241
2704.1836,0.001533
2706.0473,0.001519
2707.9109,0.001402
2709.7746,0.001391
2711.6383,0.001437
2713.5019,0.001562
2715.3656,0.001590
2717.2293,0.001694
2719.0930,0.001743
2720.9566,0.001731
2722.8203,0.001912
2724.6840,0.002060
2726.5476,0.002056
2728.4113,0.002187
2730.2750,0.002362
2732.1386,0.002474
2734.0023,0.002596
2735.8660,0.002731
2737.7296,0.002657
2739.5933,0.002523
2741.4570,0.002643
2743.3206,0.002783
2745.1843,0.002947
2747.0480,0.003016
2748.9117,0.002926
2750.7753,0.003010
2752.6390,0.003263
2754.5027,0.003478
2756.3663,0.003461
2758.2300,0.003433
2760.0937,0.003550
2761.9573,0.003592
2763.8210,0.003628
2765.6847,0.003759
2767.5483,0.003853
2769.4120,0.003921
2771.2757,0.004018
2773.1394,0.004006
2775.0030,0.004127
2776.8667,0.004407
2778.7304,0.004526
2780.5940,0.004549
2782.4577,0.004683
2784.3214,0.004851
2786.1850,0.005072
2788.0487,0.005102
2789.9124,0.005086
2791.7760,0.005153
2793.6397,0.005254
2795.5034,0.005442
2797.3670,0.005487
2799.2307,0.005434
2801.0944,0.005638
2802.9581,0.005731
2804.8217,0.005917
2806.6854,0.005995
2808.5491,0.005879
2810.4127,0.006083
2812.2764,0.006303
2814.1401,0.006511
2816.0037,0.006732
2817.8674,0.006927
2819.7311,0.007066
2821.5947,0.007134
2823.4584,0.007176
2825.3221,0.007410
2827.1857,0.007778
2829.0494,0.007871
2830.9131,0.007890
2832.7768,0.007952
2834.6404,0.008067
2836.5041,0.008348
2838.3678,0.008771
2840.2314,0.009163
2842.0951,0.009531
2843.9588,0.009916
2845.8224,0.010519
2847.6861,0.011172
2849.5498,0.011607
2851.4134,0.011844
2853.2771,0.012086
2855.1408,0.011946
2857.0045,0.011939
2858.8681,0.012174
2860.7318,0.012044
2862.5955,0.012040
2864.4591,0.012311
2866.3228,0.012560
2868.1865,0.012657
2870.0501,0.013004
2871.9138,0.013359
2873.7775,0.013355
2875.6411,0.013267
2877.5048,0.013228
2879.3685,0.013065
2881.2321,0.012871
2883.0958,0.013250
2884.9595,0.013505
2886.8232,0.013432
2888.6868,0.013592
2890.5505,0.013859
2892.4142,0.013807
2894.2778,0.013967
2896.1415,0.014405
2898.0052,0.014639
2899.8688,0.014780
2901.7325,0.015015
2903.5962,0.015220
2905.4598,0.015428
2907.3235,0.015681
2909.1872,0.016242
2911.0509,0.016814
2912.9145,0.017271
2914.7782,0.017849
2916.6419,0.018187
2918.5055,0.018361
2920.3692,0.018660
2922.2329,0.018982
2924.0965,0.019140
2925.9602,0.019062
2927.8239,0.018962
2929.6875,0.019052
2931.5512,0.018861
2933.4149,0.018442
2935.2785,0.018043
2937.1422,0.017638
2939.0059,0.017280
2940.8696,0.017332
2942.7332,0.017141
2944.5969,0.016950
2946.4606,0.016952
2948.3242,0.016888
2950.1879,0.017033
2952.0516,0.017152
2953.9152,0.017089
2955.7789,0.017145
2957.6426,0.017276
2959.5062,0.017346
2961.3699,0.016869
2963.2336,0.016554
2965.0972,0.016736
2966.9609,0.016489
2968.8246,0.015847
2970.6883,0.015461
2972.5519,0.015110
2974.4156,0.014818
2976.2793,0.014817
2978.1429,0.014685
2980.0066,0.014367
2981.8703,0.013886
2983.7339,0.013542
2985.5976,0.013499
2987.4613,0.013269
2989.3249,0.013334
2991.1886,0.013396
2993.0523,0.013160
2994.9160,0.013011
2996.7796,0.012988
2998.6433,0.012669
3000.5070,0.012683
3002.3706,0.013116
3004.2343,0.013353
3006.0980,0.013346
3007.9616,0.013443
3009.8253,0.013556
3011.6890,0.013855
3013.5526,0.013594
3015.4163,0.013503
3017.2800,0.013937
3019.1436,0.014421
3021.0073,0.014936
3022.8710,0.015139
3024.7347,0.015070
3026.5983,0.014982
3028.4620,0.015203
3030.3257,0.015594
3032.1893,0.015627
3034.0530,0.015814
3035.9167,0.016122
3037.7803,0.016381
3039.6440,0.016670
3041.5077,0.016906
3043.3713,0.017274
3045.2350,0.017286
3047.0987,0.016962
3048.9624,0.017249
3050.8260,0.017712
3052.6897,0.017834
3054.5534,0.018135
3056.4170,0.018381
3058.2807,0.018468
3060.1444,0.018698
3062.0080,0.019093
3063.8717,0.019497
3065.7354,0.019548
3067.5990,0.019321
3069.4627,0.019218
3071.3264,0.019456
3073.1900,0.019666
3075.0537,0.019851
3076.9174,0.019729
3078.7811,0.019319
3080.6447,0.019345
3082.5084,0.019626
3084.3721,0.019579
3086.2357,0.019673
3088.0994,0.019806
3089.9631,0.019890
3091.8267,0.020052
3093.6904,0.019861
3095.5541,0.019725
3097.4177,0.020015
3099.2814,0.020191
3101.1451,0.020115
3103.0087,0.020114
3104.8724,0.020223
3106.7361,0.020137
3108.5998,0.020448
3110.4634,0.020341
3112.3271,0.020416
3114.1908,0.020928
3116.0544,0.021096
3117.9181,0.020971
3119.7818,0.020798
3121.6454,0.021016
3123.5091,0.021387
3125.3728,0.021406
3127.2364,0.021666
3129.1001,0.021964
3130.9638,0.022154
3132.8275,0.022278
3134.6911,0.022456
3136.5548,0.022930
3138.4185,0.023082
3140.2821,0.023188
3142.1458,0.023613
3144.0095,0.023637
3145.8731,0.023822
3147.7368,0.024318
3149.6005,0.024696
3151.4641,0.024728
3153.3278,0.024890
3155.1915,0.025165
3157.0551,0.025461
3158.9188,0.025712
3160.7825,0.025845
3162.6462,0.025911
3164.5098,0.026523
3166.3735,0.026976
3168.2372,0.027107
3170.1008,0.027439
3171.9645,0.028054
3173.8282,0.028111
3175.6918,0.028266
3177.5555,0.028275
3179.4192,0.028568
3181.2828,0.028914
3183.1465,0.028975
3185.0102,0.029602
3186.8739,0.030131
3188.7375,0.030039
3190.6012,0.030169
3192.4649,0.030307
3194.3285,0.030890
3196.1922,0.031251
3198.0559,0.031115
3199.9195,0.031175
3201.7832,0.031628
3203.6469,0.031728
3205.5105,0.031785
3207.3742,0.032206
3209.2379,0.032586
3211.1015,0.032394
3212.9652,0.032349
3214.8289,0.032855
3216.6926,0.033383
3218.5562,0.032862
3220.4199,0.032501
3222.2836,0.032740
3224.1472,0.032941
3226.0109,0.032829
3227.8746,0.033224
3229.7382,0.033460
3231.6019,0.033878
3233.4656,0.034190
3235.3292,0.034534
3237.1929,0.034404
3239.0566,0.034454
3240.9202,0.034810
3242.7839,0.034984
3244.6476,0.035084
3246.5113,0.035289
3248.3749,0.035489
3250.2386,0.035624
3252.1023,0.035662
3253.9659,0.035770
3255.8296,0.035855
3257.6933,0.035884
3259.5569,0.035870
3261.4206,0.036431
3263.2843,0.036730
3265.1479,0.036653
3267.0116,0.036704
3268.8753,0.037243
3270.7390,0.037176
3272.6026,0.036865
3274.4663,0.036707
3276.3300,0.036996
3278.1936,0.037028
3280.0573,0.037127
3281.9210,0.036723
3283.7846,0.036391
3285.6483,0.036464
3287.5120,0.036479
3289.3756,0.036332
3291.2393,0.036322
3293.1030,0.036107
3294.9666,0.035976
3296.8303,0.035650
3298.6940,0.035328
3300.5577,0.035223
3302.4213,0.035447
3304.2850,0.035152
3306.1487,0.034290
3308.0123,0.034047
3309.8760,0.034226
3311.7397,0.033972
3313.6033,0.033516
3315.4670,0.033130
3317.3307,0.032808
3319.1943,0.032751
3321.0580,0.032725
3322.9217,0.032466
3324.7854,0.032582
3326.6490,0.032248
3328.5127,0.031873
3330.3764,0.031893
3332.2400,0.031920
3334.1037,0.031729
3335.9674,0.031439
3337.8310,0.031282
3339.6947,0.031154
3341.5584,0.030943
3343.4220,0.030868
3345.2857,0.030893
3347.1494,0.030787
3349.0130,0.030537
3350.8767,0.029856
3352.7404,0.029443
3354.6041,0.029475
3356.4677,0.029438
3358.3314,0.029849
3360.1951,0.029857
3362.0587,0.029284
3363.9224,0.028938
3365.7861,0.028406
3367.6497,0.027618
3369.5134,0.027911
3371.3771,0.028487
3373.2407,0.028259
3375.1044,0.027480
3376.9681,0.027443
3378.8317,0.027664
3380.6954,0.027777
3382.5591,0.027456
3384.4228,0.026988
3386.2864,0.027013
3388.1501,0.026531
3390.0138,0.025782
3391.8774,0.025858
3393.7411,0.025751
3395.6048,0.025607
3397.4684,0.025733
3399.3321,0.025910
3401.1958,0.025525
3403.0594,0.025386
3404.9231,0.025461
3406.7868,0.025277
3408.6505,0.024944
3410.5141,0.024744
3412.3778,0.024139
3414.2415,0.023967
3416.1051,0.024169
3417.9688,0.023820
3419.8325,0.023511
3421.6961,0.023586
3423.5598,0.023563
3425.4235,0.023076
3427.2871,0.022725
3429.1508,0.022516
3431.0145,0.021936
3432.8781,0.022099
3434.7418,0.022504
3436.6055,0.022348
3438.4692,0.022081
3440.3328,0.021541
3442.1965,0.020827
3444.0602,0.020491
3445.9238,0.020280
3447.7875,0.020689
3449.6512,0.020955
3451.5148,0.020535
3453.3785,0.019419
3455.2422,0.018816
3457.1058,0.019318
3458.9695,0.019508
3460.8332,0.018833
3462.6969,0.018822
3464.5605,0.018655
3466.4242,0.018006
3468.2879,0.017827
3470.1515,0.017515
3472.0152,0.017401
3473.8789,0.017895
3475.7425,0.017571
3477.6062,0.016614
3479.4699,0.016181
3481.3335,0.015991
3483.1972,0.015660
3485.0609,0.015477
3486.9245,0.015416
3488.7882,0.015422
3490.6519,0.015004
3492.5156,0.014390
3494.3792,0.014384
3496.2429,0.014483
3498.1066,0.013936
3499.9702,0.013157
3501.8339,0.012907
3503.6976,0.012685
3505.5612,0.011845
3507.4249,0.011963
3509.2886,0.011850
3511.1522,0.011454
3513.0159,0.011845
3514.8796,0.011840
3516.7432,0.010967
3518.6069,0.009695
3520.4706,0.009286
3522.3343,0.009634
3524.1979,0.009362
3526.0616,0.008629
3527.9253,0.008313
3529.7889,0.008246
3531.6526,0.008063
3533.5163,0.007559
3535.3799,0.007175
3537.2436,0.007031
3539.1073,0.007242
3540.9709,0.007218
3542.8346,0.006401
3544.6983,0.005902
3546.5620,0.006072
3548.4256,0.006038
3550.2893,0.005558
3552.1530,0.004986
3554.0166,0.004360
3555.8803,0.003769
3557.7440,0.003445
3559.6076,0.003824
3561.4713,0.003607
3563.3350,0.002750
3565.1986,0.002198
3567.0623,0.002477
3568.9260,0.002657
3570.7896,0.002187
3572.6533,0.001640
3574.5170,0.001552
3576.3807,0.001687
3578.2443,0.001471
3580.1080,0.001058
3581.9717,0.000634
3583.8353,-0.000053
3585.6990,-0.000569
3587.5627,-0.000377
3589.4263,-0.000204
3591.2900,0.000069
3593.1537,-0.000133
3595.0173,-0.001027
3596.8810,-0.001666
3598.7447,-0.002010
3600.6084,-0.002410
3602.4720,-0.002642
3604.3357,-0.002413
3606.1994,-0.002179
3608.0630,-0.002260
3609.9267,-0.002627
3611.7904,-0.003214
3613.6540,-0.003151
3615.5177,-0.002868
3617.3814,-0.003665
3619.2450,-0.004350
3621.1087,-0.004320
3622.9724,-0.004821
3624.8360,-0.005055
3626.6997,-0.005011
3628.5634,-0.005557
3630.4271,-0.006029
3632.2907,-0.005820
3634.1544,-0.005800
3636.0181,-0.005782
3637.8817,-0.005892
3639.7454,-0.006101
3641.6091,-0.006254
3643.4727,-0.006351
3645.3364,-0.006499
3647.2001,-0.007300
3649.0637,-0.008048
3650.9274,-0.007846
3652.7911,-0.007397
3654.6547,-0.007427
3656.5184,-0.007897
3658.3821,-0.007836
3660.2458,-0.007704
3662.1094,-0.008052
3663.9731,-0.008180
3665.8368,-0.008381
3667.7004,-0.008918
3669.5641,-0.009201
3671.4278,-0.009006
3673.2914,-0.008755
3675.1551,-0.009024
3677.0188,-0.009268
3678.8824,-0.009127
3680.7461,-0.009007
3682.6098,-0.009208
3684.4735,-0.009388
3686.3371,-0.009546
3688.2008,-0.009998
3690.0645,-0.010164
3691.9281,-0.009715
3693.7918,-0.009190
3695.6555,-0.009216
3697.5191,-0.009780
3699.3828,-0.010003
3701.2465,-0.009805
3703.1101,-0.009748
3704.9738,-0.009611
3706.8375,-0.009326
3708.7011,-0.009460
3710.5648,-0.010006
3712.4285,-0.010342
3714.2922,-0.010191
3716.1558,-0.009916
3718.0195,-0.009854
3719.8832,-0.009674
3721.7468,-0.009483
3723.6105,-0.009514
3725.4742,-0.009608
3727.3378,-0.009567
3729.2015,-0.009352
3731.0652,-0.009547
3732.9288,-0.009971
3734.7925,-0.009998
3736.6562,-0.009597
3738.5199,-0.009485
3740.3835,-0.009785
3742.2472,-0.009975
3744.1109,-0.010235
3745.9745,-0.010025
3747.8382,-0.009605
3749.7019,-0.010116
3751.5655,-0.010338
3753.4292,-0.009689
3755.2929,-0.009411
3757.1565,-0.009428
3759.0202,-0.009665
3760.8839,-0.010080
3762.7475,-0.009733
3764.6112,-0.009459
3766.4749,-0.009671
3768.3386,-0.009723
3770.2022,-0.009889
3772.0659,-0.009980
3773.9296,-0.009750
3775.7932,-0.009648
3777.6569,-0.009837
3779.5206,-0.010120
3781.3842,-0.010102
3783.2479,-0.009942
3785.1116,-0.009729
3786.9752,-0.009453
3788.8389,-0.009659
3790.7026,-0.010020
3792.5662,-0.010124
3794.4299,-0.009939
3796.2936,-0.009581
3798.1573,-0.009560
3800.0209,-0.010063
3801.8846,-0.010413
3803.7483,-0.009879
3805.6119,-0.009564
3807.4756,-0.009805
3809.3393,-0.009957
3811.2029,-0.010176
3813.0666,-0.010281
3814.9303,-0.010449
3816.7939,-0.010496
3818.6576,-0.009919
3820.5213,-0.009977
3822.3850,-0.010365
3824.2486,-0.010055
3826.1123,-0.009820
3827.9760,-0.009848
3829.8396,-0.009924
3831.7033,-0.010077
3833.5670,-0.010131
3835.4306,-0.009986
3837.2943,-0.009882
3839.1580,-0.010021
3841.0216,-0.009805
3842.8853,-0.009556
3844.7490,-0.009777
3846.6126,-0.009677
3848.4763,-0.009774
3850.3400,-0.010435
3852.2037,-0.010533
3854.0673,-0.010221
3855.9310,-0.010083
3857.7947,-0.009978
3859.6583,-0.010123
3861.5220,-0.010168
3863.3857,-0.009888
3865.2493,-0.009489
3867.1130,-0.009364
3868.9767,-0.009455
3870.8403,-0.009909
3872.7040,-0.010040
3874.5677,-0.010078
3876.4314,-0.010115
3878.2950,-0.009940
3880.1587,-0.010163
3882.0224,-0.010415
3883.8860,-0.010141
3885.7497,-0.010152
3887.6134,-0.009936
3889.4770,-0.009557
3891.3407,-0.009765
3893.2044,-0.009852
3895.0680,-0.009657
3896.9317,-0.009754
3898.7954,-0.009995
3900.6590,-0.010237
3902.5227,-0.010093
3904.3864,-0.009725
3906.2501,-0.009624
3908.1137,-0.009593
3909.9774,-0.009762
3911.8411,-0.009953
3913.7047,-0.009750
3915.5684,-0.009722
3917.4321,-0.009591
3919.2957,-0.009366
3921.1594,-0.009645
3923.0231,-0.009739
3924.8867,-0.009615
3926.7504,-0.009665
3928.6141,-0.009875
3930.4777,-0.010195
3932.3414,-0.010326
3934.2051,-0.010075
3936.0688,-0.009726
3937.9324,-0.009710
3939.7961,-0.009665
3941.6598,-0.009954
3943.5234,-0.010276
3945.3871,-0.009781
3947.2508,-0.009435
3949.1144,-0.009650
3950.9781,-0.009501
3952.8418,-0.009286
3954.7054,-0.009615
3956.5691,-0.009731
3958.4328,-0.009527
3960.2965,-0.009554
3962.1601,-0.009563
3964.0238,-0.009573
3965.8875,-0.009651
3967.7511,-0.009865
3969.6148,-0.009900
3971.4785,-0.009717
3973.3421,-0.009493
3975.2058,-0.009559
3977.0695,-0.009630
3978.9331,-0.009528
3980.7968,-0.009705
3982.6605,-0.009554
3984.5241,-0.009326
3986.3878,-0.009460
3988.2515,-0.009499
3990.1152,-0.009387
3991.9788,-0.009227
3993.8425,-0.009365
3995.7062,-0.009506
3997.5698,-0.009556
3999.4335,-0.009657
