Wavenumber,Intensity
650.4205,0.114188
652.2841,0.114786
654.1478,0.118549
656.0115,0.115304
657.8751,0.111664
659.7388,0.112397
661.6025,0.111681
663.4661,0.107610
665.3298,0.103782
667.1935,0.104469
669.0571,0.110970
670.9208,0.109766
672.7845,0.107970
674.6481,0.107222
676.5118,0.105520
678.3755,0.103758
680.2392,0.103291
682.1028,0.102383
683.9665,0.101319
685.8302,0.101588
687.6938,0.101071
689.5575,0.099351
691.4212,0.099179
693.2848,0.099846
695.1485,0.099963
697.0122,0.098784
698.8758,0.097393
700.7395,0.097172
702.6032,0.097129
704.4669,0.095964
706.3305,0.094449
708.1942,0.092035
710.0579,0.089253
711.9215,0.088278
713.7852,0.087915
715.6489,0.087411
717.5125,0.087180
719.3762,0.086376
721.2399,0.084957
723.1035,0.084044
724.9672,0.083121
726.8309,0.081712
728.6945,0.081034
730.5582,0.080943
732.4219,0.080425
734.2856,0.080290
736.1492,0.080256
738.0129,0.079467
739.8766,0.078821
741.7402,0.078723
743.6039,0.078849
745.4676,0.078687
747.3312,0.077982
749.1949,0.077068
751.0586,0.076193
752.9222,0.075473
754.7859,0.074882
756.6496,0.074326
758.5132,0.073373
760.3769,0.072724
762.2406,0.072518
764.1043,0.072137
765.9679,0.071766
767.8316,0.071253
769.6953,0.070312
771.5589,0.069478
773.4226,0.069420
775.2863,0.069347
777.1499,0.068619
779.0136,0.068481
780.8773,0.068620
782.7409,0.068154
784.6046,0.067907
786.4683,0.067719
788.3320,0.066903
790.1956,0.066316
792.0593,0.066320
793.9230,0.066148
795.7866,0.065772
797.6503,0.065565
799.5140,0.065404
801.3776,0.065090
803.2413,0.064505
805.1050,0.064363
806.9686,0.064769
808.8323,0.064801
810.6960,0.064549
812.5596,0.064529
814.4233,0.064396
816.2870,0.063938
818.1507,0.063499
820.0143,0.063164
821.8780,0.062538
823.7417,0.062014
825.6053,0.061856
827.4690,0.061456
829.3327,0.060657
831.1963,0.060183
833.0600,0.059932
834.9237,0.059468
836.7873,0.058963
838.6510,0.058608
840.5147,0.058121
842.3784,0.057806
844.2420,0.057724
846.1057,0.057538
847.9694,0.057486
849.8330,0.057725
851.6967,0.057864
853.5604,0.057818
855.4240,0.057819
857.2877,0.057873
859.1514,0.057995
861.0150,0.058113
862.8787,0.058171
864.7424,0.058371
866.6060,0.058661
868.4697,0.058973
870.3334,0.059342
872.1971,0.059637
874.0607,0.059819
875.9244,0.060201
877.7881,0.060343
879.6517,0.060372
881.5154,0.060347
883.3791,0.060159
885.2427,0.060116
887.1064,0.060160
888.9701,0.060095
890.8337,0.060218
892.6974,0.060421
894.5611,0.060546
896.4247,0.060612
898.2884,0.060531
900.1521,0.060583
902.0158,0.060847
903.8794,0.060982
905.7431,0.061127
907.6068,0.061494
909.4704,0.061976
911.3341,0.062546
913.1978,0.063195
915.0614,0.063750
916.9251,0.064305
918.7888,0.064702
920.6524,0.064867
922.5161,0.065004
924.3798,0.065212
926.2435,0.065493
928.1071,0.065762
929.9708,0.065924
931.8345,0.066045
933.6981,0.066329
935.5618,0.066772
937.4255,0.067145
939.2891,0.067463
941.1528,0.067731
943.0165,0.068182
944.8801,0.068937
946.7438,0.069694
948.6075,0.070393
950.4711,0.071156
952.3348,0.071990
954.1985,0.072935
956.0622,0.073841
957.9258,0.074786
959.7895,0.075936
961.6532,0.077277
963.5168,0.078510
965.3805,0.079488
967.2442,0.080227
969.1078,0.080694
970.9715,0.080967
972.8352,0.081300
974.6988,0.081640
976.5625,0.082014
978.4262,0.082702
980.2899,0.083628
982.1535,0.084545
984.0172,0.085568
985.8809,0.086720
987.7445,0.087931
989.6082,0.089240
991.4719,0.090640
993.3355,0.092010
995.1992,0.093341
997.0629,0.094658
998.9265,0.095899
1000.7902,0.097167
1002.6539,0.098579
1004.5175,0.099986
1006.3812,0.101523
1008.2449,0.103365
1010.1086,0.105308
1011.9722,0.107092
1013.8359,0.108756
1015.6996,0.110419
1017.5632,0.112002
1019.4269,0.113389
1021.2906,0.114529
1023.1542,0.115382
1025.0179,0.116175
1026.8816,0.116991
1028.7452,0.117676
1030.6089,0.118253
1032.4726,0.118758
1034.3362,0.119133
1036.1999,0.119617
1038.0636,0.120063
1039.9273,0.120339
1041.7909,0.120411
1043.6546,0.120408
1045.5183,0.120523
1047.3819,0.120727
1049.2456,0.120835
1051.1093,0.120794
1052.9729,0.120630
1054.8366,0.120558
1056.7003,0.120373
1058.5639,0.120027
1060.4276,0.119690
1062.2913,0.119412
1064.1550,0.119160
1066.0186,0.118940
1067.8823,0.118696
1069.7460,0.118452
1071.6096,0.118128
1073.4733,0.117614
1075.3370,0.116838
1077.2006,0.115723
1079.0643,0.114241
1080.9280,0.112534
1082.7916,0.110609
1084.6553,0.108448
1086.5190,0.106236
1088.3826,0.104173
1090.2463,0.102282
1092.1100,0.100558
1093.9737,0.099035
1095.8373,0.097668
1097.7010,0.096555
1099.5647,0.095587
1101.4283,0.094683
1103.2920,0.093814
1105.1557,0.093041
1107.0193,0.092467
1108.8830,0.091891
1110.7467,0.091372
1112.6103,0.090915
1114.4740,0.090318
1116.3377,0.089715
1118.2014,0.089062
1120.0650,0.088228
1121.9287,0.087387
1123.7924,0.086456
1125.6560,0.085459
1127.5197,0.084495
1129.3834,0.083493
1131.2470,0.082285
1133.1107,0.081128
1134.9744,0.080233
1136.8380,0.079462
1138.7017,0.078803
1140.5654,0.078429
1142.4290,0.078356
1144.2927,0.078417
1146.1564,0.078509
1148.0201,0.078644
1149.8837,0.078904
1151.7474,0.079151
1153.6111,0.079236
1155.4747,0.079207
1157.3384,0.078997
1159.2021,0.078742
1161.0657,0.078546
1162.9294,0.078191
1164.7931,0.077655
1166.6567,0.077161
1168.5204,0.076532
1170.3841,0.075698
1172.2477,0.074656
1174.1114,0.073430
1175.9751,0.072159
1177.8388,0.070977
1179.7024,0.070223
1181.5661,0.069981
1183.4298,0.070055
1185.2934,0.070485
1187.1571,0.071256
1189.0208,0.072121
1190.8844,0.073068
1192.7481,0.074169
1194.6118,0.075396
1196.4754,0.076638
1198.3391,0.077990
1200.2028,0.079448
1202.0665,0.080878
1203.9301,0.082276
1205.7938,0.083531
1207.6575,0.084659
1209.5211,0.085652
1211.3848,0.086693
1213.2485,0.087900
1215.1121,0.089013
1216.9758,0.090068
1218.8395,0.091078
1220.7031,0.091947
1222.5668,0.092830
1224.4305,0.093724
1226.2941,0.094397
1228.1578,0.094751
1230.0215,0.095018
1231.8852,0.095205
1233.7488,0.095165
1235.6125,0.094951
1237.4762,0.094641
1239.3398,0.094158
1241.2035,0.093542
1243.0672,0.092794
1244.9308,0.091861
1246.7945,0.090899
1248.6582,0.089911
1250.5218,0.088901
1252.3855,0.087948
1254.2492,0.087042
1256.1129,0.086230
1257.9765,0.085522
1259.8402,0.084884
1261.7039,0.084263
1263.5675,0.083656
1265.4312,0.083223
1267.2949,0.082827
1269.1585,0.082455
1271.0222,0.082199
1272.8859,0.081979
1274.7495,0.081746
1276.6132,0.081523
1278.4769,0.081437
1280.3405,0.081443
1282.2042,0.081365
1284.0679,0.081338
1285.9316,0.081430
1287.7952,0.081512
1289.6589,0.081535
1291.5226,0.081521
1293.3862,0.081484
1295.2499,0.081653
1297.1136,0.081826
1298.9772,0.081847
1300.8409,0.081932
1302.7046,0.082071
1304.5682,0.082182
1306.4319,0.082336
1308.2956,0.082328
1310.1592,0.082148
1312.0229,0.082245
1313.8866,0.082051
1315.7503,0.081465
1317.6139,0.081274
1319.4776,0.081155
1321.3413,0.080501
1323.2049,0.079804
1325.0686,0.079432
1326.9323,0.079303
1328.7959,0.079320
1330.6596,0.079265
1332.5233,0.079117
1334.3869,0.078955
1336.2506,0.079185
1338.1143,0.080289
1339.9780,0.081447
1341.8416,0.081085
1343.7053,0.080487
1345.5690,0.080421
1347.4326,0.080536
1349.2963,0.080915
1351.1600,0.081143
1353.0236,0.081528
1354.8873,0.082254
1356.7510,0.082560
1358.6146,0.082791
1360.4783,0.084363
1362.3420,0.087405
1364.2056,0.088872
1366.0693,0.089123
1367.9330,0.090296
1369.7967,0.091055
1371.6603,0.091754
1373.5240,0.094221
1375.3877,0.095861
1377.2513,0.095874
1379.1150,0.096679
1380.9787,0.097189
1382.8423,0.097232
1384.7060,0.097601
1386.5697,0.099640
1388.4333,0.100264
1390.2970,0.098205
1392.1607,0.097384
1394.0244,0.098895
1395.8880,0.099461
1397.7517,0.098880
1399.6154,0.098665
1401.4790,0.096450
1403.3427,0.095416
1405.2064,0.095379
1407.0700,0.093995
1408.9337,0.092579
1410.7974,0.091740
1412.6610,0.090273
1414.5247,0.088471
1416.3884,0.088140
1418.2520,0.090906
1420.1157,0.091621
1421.9794,0.089038
1423.8431,0.088852
1425.7067,0.088408
1427.5704,0.088366
1429.4341,0.090194
1431.2977,0.090587
1433.1614,0.090150
1435.0251,0.092904
1436.8887,0.098132
1438.7524,0.097070
1440.6161,0.095441
1442.4797,0.095309
1444.3434,0.095106
1446.2071,0.095901
1448.0707,0.097138
1449.9344,0.095636
1451.7981,0.093141
1453.6618,0.091421
1455.5254,0.094133
1457.3891,0.099756
1459.2528,0.095163
1461.1164,0.089983
1462.9801,0.089138
1464.8438,0.090875
1466.7074,0.088453
1468.5711,0.084698
1470.4348,0.084008
1472.2984,0.087278
1474.1621,0.087580
1476.0258,0.086213
1477.8895,0.085211
1479.7531,0.085199
1481.6168,0.086707
1483.4805,0.087278
1485.3441,0.088887
1487.2078,0.093569
1489.0715,0.100457
1490.9351,0.104276
1492.7988,0.103054
1494.6625,0.105406
1496.5261,0.113071
1498.3898,0.117250
1500.2535,0.116807
1502.1171,0.115212
1503.9808,0.116815
1505.8445,0.128897
1507.7082,0.139335
1509.5718,0.134911
1511.4355,0.133253
1513.2992,0.133156
1515.1628,0.134061
1517.0265,0.135628
1518.8902,0.135193
1520.7538,0.138408
1522.6175,0.139874
1524.4812,0.137813
1526.3448,0.138147
1528.2085,0.136939
1530.0722,0.135105
1531.9359,0.135441
1533.7995,0.136193
1535.6632,0.131861
1537.5269,0.131032
1539.3905,0.136409
1541.2542,0.137245
1543.1179,0.132490
1544.9815,0.128580
1546.8452,0.123891
1548.7089,0.120736
1550.5725,0.117010
1552.4362,0.112381
1554.2999,0.108622
1556.1635,0.105943
1558.0272,0.109877
1559.8909,0.108963
1561.7546,0.099572
1563.6182,0.095194
1565.4819,0.092619
1567.3456,0.090658
1569.2092,0.090588
1571.0729,0.087631
1572.9366,0.084410
1574.8002,0.085403
1576.6639,0.086884
1578.5276,0.083695
1580.3912,0.081520
1582.2549,0.081027
1584.1186,0.080979
1585.9822,0.081094
1587.8459,0.081545
1589.7096,0.082313
1591.5733,0.083302
1593.4369,0.084767
1595.3006,0.086497
1597.1643,0.088011
1599.0279,0.089671
1600.8916,0.092038
1602.7553,0.094865
1604.6189,0.097627
1606.4826,0.100698
1608.3463,0.104715
1610.2099,0.107853
1612.0736,0.109958
1613.9373,0.112910
1615.8010,0.119911
1617.6646,0.124883
1619.5283,0.124116
1621.3920,0.126380
1623.2556,0.131863
1625.1193,0.133913
1626.9830,0.135129
1628.8466,0.136130
1630.7103,0.134663
1632.5740,0.133853
1634.4376,0.137448
1636.3013,0.140076
1638.1650,0.135319
1640.0286,0.130944
1641.8923,0.127831
1643.7560,0.125805
1645.6197,0.125706
1647.4833,0.123084
1649.3470,0.117756
1651.2107,0.117095
1653.0743,0.120525
1654.9380,0.112978
1656.8017,0.105921
1658.6653,0.101116
1660.5290,0.097436
1662.3927,0.094181
1664.2563,0.089489
1666.1200,0.085190
1667.9837,0.082942
1669.8474,0.080734
1671.7110,0.076687
1673.5747,0.073498
1675.4384,0.070873
1677.3020,0.066438
1679.1657,0.062928
1681.0294,0.060068
1682.8930,0.058793
1684.7567,0.056419
1686.6204,0.051639
1688.4840,0.048047
1690.3477,0.044438
1692.2114,0.040498
1694.0750,0.037317
1695.9387,0.034368
1697.8024,0.031193
1699.6661,0.029214
1701.5297,0.026284
1703.3934,0.023483
1705.2571,0.021787
1707.1207,0.020310
1708.9844,0.019144
1710.8481,0.017795
1712.7117,0.016645
1714.5754,0.016284
1716.4391,0.016561
1718.3027,0.016348
1720.1664,0.015100
1722.0301,0.014133
1723.8937,0.013807
1725.7574,0.013518
1727.6211,0.013108
1729.4848,0.012700
1731.3484,0.012893
1733.2121,0.013638
1735.0758,0.013933
1736.9394,0.013079
1738.8031,0.012945
1740.6668,0.012886
1742.5304,0.012659
1744.3941,0.012288
1746.2578,0.011599
1748.1214,0.011022
1749.9851,0.010682
1751.8488,0.010056
1753.7125,0.008960
1755.5761,0.008103
1757.4398,0.007740
1759.3035,0.007268
1761.1671,0.007063
1763.0308,0.006634
1764.8945,0.006029
1766.7581,0.005983
1768.6218,0.006157
1770.4855,0.005846
1772.3491,0.005891
1774.2128,0.005790
1776.0765,0.005340
1777.9401,0.004980
1779.8038,0.005031
1781.6675,0.005350
1783.5312,0.005299
1785.3948,0.005113
1787.2585,0.004993
1789.1222,0.004986
1790.9858,0.005277
1792.8495,0.005520
1794.7132,0.005239
1796.5768,0.004743
1798.4405,0.004737
1800.3042,0.005066
1802.1678,0.005256
1804.0315,0.005002
1805.8952,0.004789
1807.7589,0.004722
1809.6225,0.004818
1811.4862,0.004895
1813.3499,0.004459
1815.2135,0.003894
1817.0772,0.003840
1818.9409,0.004189
1820.8045,0.004497
1822.6682,0.004747
1824.5319,0.004956
1826.3955,0.004834
1828.2592,0.004742
1830.1229,0.005106
1831.9865,0.005028
1833.8502,0.004671
1835.7139,0.004334
1837.5776,0.004250
1839.4412,0.004623
1841.3049,0.004729
1843.1686,0.004810
1845.0322,0.005065
1846.8959,0.005181
1848.7596,0.005174
1850.6232,0.005108
1852.4869,0.004957
1854.3506,0.004679
1856.2142,0.004428
1858.0779,0.004398
1859.9416,0.004506
1861.8052,0.004796
1863.6689,0.005036
1865.5326,0.004862
1867.3963,0.004887
1869.2599,0.005603
1871.1236,0.005687
1872.9873,0.005234
1874.8509,0.005176
1876.7146,0.005140
1878.5783,0.005203
1880.4419,0.004997
1882.3056,0.004946
1884.1693,0.005248
1886.0329,0.005169
1887.8966,0.005038
1889.7603,0.004973
1891.6240,0.005072
1893.4876,0.005238
1895.3513,0.005344
1897.2150,0.005052
1899.0786,0.004740
1900.9423,0.004834
1902.8060,0.005196
1904.6696,0.005723
1906.5333,0.005626
1908.3970,0.005061
1910.2606,0.004983
1912.1243,0.005011
1913.9880,0.004981
1915.8516,0.005482
1917.7153,0.005835
1919.5790,0.005478
1921.4427,0.005110
1923.3063,0.004609
1925.1700,0.004482
1927.0337,0.004979
1928.8973,0.005123
1930.7610,0.004525
1932.6247,0.004408
1934.4883,0.005236
1936.3520,0.005848
1938.2157,0.005799
1940.0793,0.005381
1941.9430,0.004891
1943.8067,0.005151
1945.6704,0.005686
1947.5340,0.005700
1949.3977,0.004713
1951.2614,0.004660
1953.1250,0.005454
1954.9887,0.005524
1956.8524,0.005717
1958.7160,0.006098
1960.5797,0.005765
1962.4434,0.004975
1964.3070,0.004531
1966.1707,0.005066
1968.0344,0.005675
1969.8980,0.005235
1971.7617,0.004735
1973.6254,0.004911
1975.4891,0.005525
1977.3527,0.007854
1979.2164,0.010316
1981.0801,0.009909
1982.9437,0.009192
1984.8074,0.008488
1986.6711,0.007103
1988.5347,0.006244
1990.3984,0.005912
1992.2621,0.006386
1994.1257,0.006843
1995.9894,0.006225
1997.8531,0.005315
1999.7167,0.006013
2001.5804,0.006577
2003.4441,0.005458
2005.3078,0.005606
2007.1714,0.006952
2009.0351,0.007142
2010.8988,0.006608
2012.7624,0.006666
2014.6261,0.008157
2016.4898,0.008491
2018.3534,0.007227
2020.2171,0.007005
2022.0808,0.007664
2023.9444,0.007397
2025.8081,0.006528
2027.6718,0.006865
2029.5355,0.007822
2031.3991,0.008156
2033.2628,0.008620
2035.1265,0.008958
2036.9901,0.008480
2038.8538,0.008324
2040.7175,0.008562
2042.5811,0.009130
2044.4448,0.009700
2046.3085,0.009545
2048.1721,0.009766
2050.0358,0.009818
2051.8995,0.009265
2053.7631,0.009197
2055.6268,0.009550
2057.4905,0.009254
2059.3542,0.008421
2061.2178,0.008287
2063.0815,0.009028
2064.9452,0.009233
2066.8088,0.009187
2068.6725,0.009527
2070.5362,0.009546
2072.3998,0.009541
2074.2635,0.009732
2076.1272,0.010045
2077.9908,0.009288
2079.8545,0.008249
2081.7182,0.008427
2083.5819,0.008753
2085.4455,0.009045
2087.3092,0.008997
2089.1729,0.008475
2091.0365,0.008120
2092.9002,0.008028
2094.7639,0.008779
2096.6275,0.009580
2098.4912,0.009382
2100.3549,0.009103
2102.2185,0.008778
2104.0822,0.008749
2105.9459,0.009174
2107.8095,0.009151
2109.6732,0.008975
2111.5369,0.008794
2113.4006,0.008864
2115.2642,0.009243
2117.1279,0.008801
2118.9916,0.008218
2120.8552,0.008385
2122.7189,0.008011
2124.5826,0.007122
2126.4462,0.006622
2128.3099,0.005991
2130.1736,0.005804
2132.0372,0.006186
2133.9009,0.006547
2135.7646,0.007526
2137.6282,0.008621
2139.4919,0.007849
2141.3556,0.006488
2143.2193,0.006624
2145.0829,0.007180
2146.9466,0.007311
2148.8103,0.007606
2150.6739,0.008220
2152.5376,0.007543
2154.4013,0.006371
2156.2649,0.006930
2158.1286,0.009232
2159.9923,0.011257
2161.8559,0.011225
2163.7196,0.010431
2165.5833,0.010333
2167.4470,0.010032
2169.3106,0.009918
2171.1743,0.010031
2173.0380,0.009493
2174.9016,0.009749
2176.7653,0.009842
2178.6290,0.009036
2180.4926,0.009261
2182.3563,0.010749
2184.2200,0.011447
2186.0836,0.010430
2187.9473,0.009785
2189.8110,0.010029
2191.6746,0.010000
2193.5383,0.010168
2195.4020,0.010644
2197.2657,0.011033
2199.1293,0.010929
2200.9930,0.010179
2202.8567,0.010358
2204.7203,0.010946
2206.5840,0.010242
2208.4477,0.009613
2210.3113,0.009751
2212.1750,0.009818
2214.0387,0.009830
2215.9023,0.009793
2217.7660,0.010484
2219.6297,0.011293
2221.4934,0.010351
2223.3570,0.009371
2225.2207,0.009839
2227.0844,0.010392
2228.9480,0.010448
2230.8117,0.010619
2232.6754,0.011071
2234.5390,0.011166
2236.4027,0.010858
2238.2664,0.010438
2240.1300,0.010283
2241.9937,0.010488
2243.8574,0.010731
2245.7210,0.010767
2247.5847,0.010717
2249.4484,0.010649
2251.3121,0.010082
2253.1757,0.009806
2255.0394,0.010148
2256.9031,0.010816
2258.7667,0.011641
2260.6304,0.011485
2262.4941,0.010718
2264.3577,0.010642
2266.2214,0.011162
2268.0851,0.011637
2269.9487,0.011944
2271.8124,0.011853
2273.6761,0.011442
2275.5397,0.011432
2277.4034,0.011950
2279.2671,0.012485
2281.1308,0.012564
2282.9944,0.012305
2284.8581,0.012145
2286.7218,0.011973
2288.5854,0.011882
2290.4491,0.012038
2292.3128,0.012277
2294.1764,0.011943
2296.0401,0.011548
2297.9038,0.011530
2299.7674,0.011548
2301.6311,0.011504
2303.4948,0.011447
2305.3585,0.011581
2307.2221,0.011587
2309.0858,0.011406
2310.9495,0.011595
2312.8131,0.011954
2314.6768,0.012224
2316.5405,0.012636
2318.4041,0.012742
2320.2678,0.012816
2322.1315,0.013136
2323.9951,0.013111
2325.8588,0.012534
2327.7225,0.011929
2329.5861,0.011846
2331.4498,0.011915
2333.3135,0.012182
2335.1772,0.012110
2337.0408,0.011999
2338.9045,0.012771
2340.7682,0.013755
2342.6318,0.014105
2344.4955,0.013584
2346.3592,0.012282
2348.2228,0.010884
2350.0865,0.009996
2351.9502,0.010214
2353.8138,0.011320
2355.6775,0.012241
2357.5412,0.013233
2359.4049,0.014045
2361.2685,0.014438
2363.1322,0.014558
2364.9959,0.014554
2366.8595,0.014720
2368.7232,0.014984
2370.5869,0.015001
2372.4505,0.014638
2374.3142,0.014560
2376.1779,0.014480
2378.0415,0.014000
2379.9052,0.013133
2381.7689,0.012572
2383.6325,0.012471
2385.4962,0.012425
2387.3599,0.012353
2389.2236,0.012374
2391.0872,0.012548
2392.9509,0.012463
2394.8146,0.012434
2396.6782,0.012339
2398.5419,0.012279
2400.4056,0.012634
2402.2692,0.012832
2404.1329,0.012828
2405.9966,0.012937
2407.8602,0.013377
2409.7239,0.013671
2411.5876,0.013599
2413.4512,0.013678
2415.3149,0.013632
2417.1786,0.013625
2419.0423,0.013887
2420.9059,0.013824
2422.7696,0.013691
2424.6333,0.013786
2426.4969,0.013829
2428.3606,0.013975
2430.2243,0.014342
2432.0879,0.014755
2433.9516,0.014666
2435.8153,0.014449
2437.6789,0.014919
2439.5426,0.015317
2441.4063,0.015229
2443.2700,0.015112
2445.1336,0.015036
2446.9973,0.015136
2448.8610,0.015266
2450.7246,0.015641
2452.5883,0.015821
2454.4520,0.015516
2456.3156,0.015375
2458.1793,0.015375
2460.0430,0.015540
2461.9066,0.015908
2463.7703,0.015977
2465.6340,0.015815
2467.4976,0.015849
2469.3613,0.015925
2471.2250,0.016233
2473.0887,0.016641
2474.9523,0.016701
2476.8160,0.016453
2478.6797,0.016323
2480.5433,0.016231
2482.4070,0.016251
2484.2707,0.016535
2486.1343,0.017029
2487.9980,0.017248
2489.8617,0.017146
2491.7253,0.017282
2493.5890,0.017328
2495.4527,0.017288
2497.3164,0.017446
2499.1800,0.017590
2501.0437,0.017635
2502.9074,0.017452
2504.7710,0.017598
2506.6347,0.017698
2508.4984,0.017696
2510.3620,0.017866
2512.2257,0.018066
2514.0894,0.018021
2515.9530,0.017897
2517.8167,0.017911
2519.6804,0.017785
2521.5440,0.018042
2523.4077,0.018506
2525.2714,0.018499
2527.1351,0.018502
2528.9987,0.018624
2530.8624,0.018654
2532.7261,0.018721
2534.5897,0.018772
2536.4534,0.018930
2538.3171,0.018944
2540.1807,0.018845
2542.0444,0.019144
2543.9081,0.018949
2545.7717,0.018653
2547.6354,0.019027
2549.4991,0.019505
2551.3627,0.019540
2553.2264,0.019239
2555.0901,0.019115
2556.9538,0.019318
2558.8174,0.019902
2560.6811,0.020241
2562.5448,0.020218
2564.4084,0.020419
2566.2721,0.020474
2568.1358,0.020385
2569.9994,0.020306
2571.8631,0.020397
2573.7268,0.020581
2575.5904,0.020797
2577.4541,0.020962
2579.3178,0.020978
2581.1815,0.020880
2583.0451,0.020899
2584.9088,0.021385
2586.7725,0.021655
2588.6361,0.021605
2590.4998,0.021827
2592.3635,0.021810
2594.2271,0.021823
2596.0908,0.021965
2597.9545,0.022015
2599.8181,0.022075
2601.6818,0.022353
2603.5455,0.022621
2605.4091,0.022805
2607.2728,0.023047
2609.1365,0.022994
2611.0002,0.023040
2612.8638,0.023357
2614.7275,0.023418
2616.5912,0.023633
2618.4548,0.023653
2620.3185,0.023798
2622.1822,0.024044
2624.0458,0.024138
2625.9095,0.024138
2627.7732,0.024160
2629.6368,0.024265
2631.5005,0.024544
2633.3642,0.024797
2635.2279,0.024862
2637.0915,0.024904
2638.9552,0.024856
2640.8189,0.024839
2642.6825,0.025148
2644.5462,0.025343
2646.4099,0.025452
2648.2735,0.025663
2650.1372,0.025729
2652.0009,0.025552
2653.8645,0.025493
2655.7282,0.025487
2657.5919,0.025511
2659.4555,0.025525
2661.3192,0.025420
2663.1829,0.025251
2665.0466,0.025316
2666.9102,0.025572
2668.7739,0.025809
2670.6376,0.025835
2672.5012,0.025743
2674.3649,0.025696
2676.2286,0.025890
2678.0922,0.026070
2679.9559,0.026037
2681.8196,0.026031
2683.6832,0.026137
2685.5469,0.026332
2687.4106,0.026477
2689.2742,0.026513
2691.1379,0.026610
2693.0016,0.026862
2694.8653,0.027055
2696.7289,0.026957
2698.5926,0.026904
2700.4563,0.027070
2702.3199,0.027185
2704.1836,0.027369
2706.0473,0.027532
2707.9109,0.027583
2709.7746,0.027646
2711.6383,0.027831
2713.5019,0.028146
2715.3656,0.028208
2717.2293,0.028331
2719.0930,0.028443
2720.9566,0.028588
2722.8203,0.028848
2724.6840,0.028920
2726.5476,0.028950
2728.4113,0.029190
2730.2750,0.029383
2732.1386,0.029501
2734.0023,0.029584
2735.8660,0.029763
2737.7296,0.029946
2739.5933,0.030030
2741.4570,0.030205
2743.3206,0.030641
2745.1843,0.030713
2747.0480,0.030566
2748.9117,0.030717
2750.7753,0.031030
2752.6390,0.031254
2754.5027,0.031262
2756.3663,0.031232
2758.2300,0.031444
2760.0937,0.031734
2761.9573,0.031893
2763.8210,0.032137
2765.6847,0.032367
2767.5483,0.032461
2769.4120,0.032559
2771.2757,0.032766
2773.1394,0.032828
2775.0030,0.032921
2776.8667,0.033138
2778.7304,0.033315
2780.5940,0.033481
2782.4577,0.033565
2784.3214,0.033775
2786.1850,0.034279
2788.0487,0.034554
2789.9124,0.034586
2791.7760,0.034603
2793.6397,0.034738
2795.5034,0.035153
2797.3670,0.035433
2799.2307,0.035513
2801.0944,0.035605
2802.9581,0.035795
2804.8217,0.035925
2806.6854,0.036383
2808.5491,0.036720
2810.4127,0.036640
2812.2764,0.036590
2814.1401,0.036962
2816.0037,0.037495
2817.8674,0.037664
2819.7311,0.037671
2821.5947,0.038043
2823.4584,0.038365
2825.3221,0.038589
2827.1857,0.038968
2829.0494,0.039418
2830.9131,0.039718
2832.7768,0.040174
2834.6404,0.040387
2836.5041,0.040937
2838.3678,0.041717
2840.2314,0.042275
2842.0951,0.042889
2843.9588,0.043827
2845.8224,0.044998
2847.6861,0.046040
2849.5498,0.046559
2851.4134,0.047001
2853.2771,0.047054
2855.1408,0.046996
2857.0045,0.046957
2858.8681,0.046595
2860.7318,0.046326
2862.5955,0.046309
2864.4591,0.046578
2866.3228,0.046997
2868.1865,0.047427
2870.0501,0.047986
2871.9138,0.047994
2873.7775,0.047626
2875.6411,0.047618
2877.5048,0.047674
2879.3685,0.047424
2881.2321,0.047207
2883.0958,0.047058
2884.9595,0.047313
2886.8232,0.047471
2888.6868,0.047436
2890.5505,0.047687
2892.4142,0.047971
2894.2778,0.048395
2896.1415,0.049035
2898.0052,0.049242
2899.8688,0.049786
2901.7325,0.050503
2903.5962,0.051021
2905.4598,0.051416
2907.3235,0.051950
2909.1872,0.052560
2911.0509,0.053424
2912.9145,0.054347
2914.7782,0.055028
2916.6419,0.055635
2918.5055,0.056493
2920.3692,0.056886
2922.2329,0.056864
2924.0965,0.056897
2925.9602,0.056358
2927.8239,0.055763
2929.6875,0.055686
2931.5512,0.054885
2933.4149,0.054038
2935.2785,0.053342
2937.1422,0.052472
2939.0059,0.051595
2940.8696,0.050933
2942.7332,0.050437
2944.5969,0.050180
2946.4606,0.049950
2948.3242,0.049666
2950.1879,0.049563
2952.0516,0.049896
2953.9152,0.050109
2955.7789,0.049912
2957.6426,0.049816
2959.5062,0.049747
2961.3699,0.049223
2963.2336,0.048425
2965.0972,0.047840
2966.9609,0.047237
2968.8246,0.046180
2970.6883,0.045821
2972.5519,0.045293
2974.4156,0.044283
2976.2793,0.043261
2978.1429,0.042401
2980.0066,0.041463
2981.8703,0.040674
2983.7339,0.040241
2985.5976,0.040080
2987.4613,0.039579
2989.3249,0.038898
2991.1886,0.038623
2993.0523,0.038121
2994.9160,0.037600
2996.7796,0.037764
2998.6433,0.037800
3000.5070,0.037398
3002.3706,0.037244
3004.2343,0.037462
3006.0980,0.037957
3007.9616,0.038442
3009.8253,0.038636
3011.6890,0.038442
3013.5526,0.038142
3015.4163,0.038229
3017.2800,0.038404
3019.1436,0.038293
3021.0073,0.038355
3022.8710,0.038942
3024.7347,0.039355
3026.5983,0.039259
3028.4620,0.039291
3030.3257,0.039862
3032.1893,0.040169
3034.0530,0.040197
3035.9167,0.040059
3037.7803,0.040158
3039.6440,0.040328
3041.5077,0.040384
3043.3713,0.040543
3045.2350,0.040611
3047.0987,0.040337
3048.9624,0.040469
3050.8260,0.040802
3052.6897,0.040879
3054.5534,0.041031
3056.4170,0.041103
3058.2807,0.041090
3060.1444,0.041107
3062.0080,0.041053
3063.8717,0.041339
3065.7354,0.041308
3067.5990,0.040797
3069.4627,0.040264
3071.3264,0.039923
3073.1900,0.039796
3075.0537,0.040188
3076.9174,0.040348
3078.7811,0.039776
3080.6447,0.039211
3082.5084,0.038819
3084.3721,0.038564
3086.2357,0.038524
3088.0994,0.038110
3089.9631,0.037636
3091.8267,0.037367
3093.6904,0.037178
3095.5541,0.037167
3097.4177,0.037047
3099.2814,0.036699
3101.1451,0.036361
3103.0087,0.036121
3104.8724,0.036022
3106.7361,0.035714
3108.5998,0.035629
3110.4634,0.035824
3112.3271,0.035728
3114.1908,0.035391
3116.0544,0.035176
3117.9181,0.034891
3119.7818,0.034760
3121.6454,0.034833
3123.5091,0.034797
3125.3728,0.034776
3127.2364,0.035009
3129.1001,0.035085
3130.9638,0.034889
3132.8275,0.034771
3134.6911,0.035091
3136.5548,0.034877
3138.4185,0.034649
3140.2821,0.034707
3142.1458,0.034822
3144.0095,0.035007
3145.8731,0.035368
3147.7368,0.035674
3149.6005,0.035682
3151.4641,0.035528
3153.3278,0.036106
3155.1915,0.036623
3157.0551,0.036490
3158.9188,0.036377
3160.7825,0.036507
3162.6462,0.036554
3164.5098,0.036796
3166.3735,0.037037
3168.2372,0.037125
3170.1008,0.037370
3171.9645,0.037621
3173.8282,0.037833
3175.6918,0.037963
3177.5555,0.037715
3179.4192,0.037621
3181.2828,0.038005
3183.1465,0.038409
3185.0102,0.038682
3186.8739,0.038542
3188.7375,0.038541
3190.6012,0.039148
3192.4649,0.039243
3194.3285,0.038906
3196.1922,0.039028
3198.0559,0.039451
3199.9195,0.039454
3201.7832,0.039698
3203.6469,0.039785
3205.5105,0.039670
3207.3742,0.039452
3209.2379,0.039553
3211.1015,0.039652
3212.9652,0.040015
3214.8289,0.040247
3216.6926,0.040285
3218.5562,0.040101
3220.4199,0.040259
3222.2836,0.040474
3224.1472,0.040178
3226.0109,0.040101
3227.8746,0.040654
3229.7382,0.041296
3231.6019,0.041800
3233.4656,0.041838
3235.3292,0.041782
3237.1929,0.041754
3239.0566,0.041687
3240.9202,0.042008
3242.7839,0.042547
3244.6476,0.043041
3246.5113,0.043572
3248.3749,0.043502
3250.2386,0.043724
3252.1023,0.044464
3253.9659,0.045340
3255.8296,0.045475
3257.6933,0.045273
3259.5569,0.045199
3261.4206,0.045701
3263.2843,0.046042
3265.1479,0.045863
3267.0116,0.045923
3268.8753,0.046379
3270.7390,0.047007
3272.6026,0.047380
3274.4663,0.046929
3276.3300,0.046353
3278.1936,0.045804
3280.0573,0.045723
3281.9210,0.045761
3283.7846,0.045574
3285.6483,0.045139
3287.5120,0.045008
3289.3756,0.045172
3291.2393,0.044520
3293.1030,0.043759
3294.9666,0.043042
3296.8303,0.042366
3298.6940,0.042319
3300.5577,0.042110
3302.4213,0.041403
3304.2850,0.040552
3306.1487,0.039807
3308.0123,0.039023
3309.8760,0.038656
3311.7397,0.038095
3313.6033,0.037826
3315.4670,0.037112
3317.3307,0.036094
3319.1943,0.035668
3321.0580,0.035304
3322.9217,0.034605
3324.7854,0.034623
3326.6490,0.034344
3328.5127,0.033681
3330.3764,0.033051
3332.2400,0.032288
3334.1037,0.032061
3335.9674,0.032340
3337.8310,0.031694
3339.6947,0.030983
3341.5584,0.030718
3343.4220,0.030652
3345.2857,0.030097
3347.1494,0.029317
3349.0130,0.029165
3350.8767,0.028995
3352.7404,0.028489
3354.6041,0.028157
3356.4677,0.027445
3358.3314,0.027353
3360.1951,0.027441
3362.0587,0.026978
3363.9224,0.026525
3365.7861,0.026105
3367.6497,0.025764
3369.5134,0.025842
3371.3771,0.025405
3373.2407,0.024654
3375.1044,0.024770
3376.9681,0.024825
3378.8317,0.024339
3380.6954,0.023994
3382.5591,0.023530
3384.4228,0.023393
3386.2864,0.023110
3388.1501,0.022573
3390.0138,0.022287
3391.8774,0.022467
3393.7411,0.022597
3395.6048,0.022518
3397.4684,0.022348
3399.3321,0.022314
3401.1958,0.022216
3403.0594,0.021689
3404.9231,0.021570
3406.7868,0.021338
3408.6505,0.020302
3410.5141,0.020143
3412.3778,0.020268
3414.2415,0.020326
3416.1051,0.020007
3417.9688,0.019591
3419.8325,0.020021
3421.6961,0.020246
3423.5598,0.019686
3425.4235,0.019644
3427.2871,0.019427
3429.1508,0.018497
3431.0145,0.018346
3432.8781,0.018775
3434.7418,0.018432
3436.6055,0.018160
3438.4692,0.017900
3440.3328,0.017322
3442.1965,0.017746
3444.0602,0.018173
3445.9238,0.017265
3447.7875,0.016608
3449.6512,0.016743
3451.5148,0.016633
3453.3785,0.016654
3455.2422,0.016594
3457.1058,0.016366
3458.9695,0.016274
3460.8332,0.016046
3462.6969,0.015540
3464.5605,0.015385
3466.4242,0.015375
3468.2879,0.015114
3470.1515,0.014907
3472.0152,0.014769
3473.8789,0.014470
3475.7425,0.014489
3477.6062,0.014869
3479.4699,0.014516
3481.3335,0.013929
3483.1972,0.013769
3485.0609,0.013859
3486.9245,0.013935
3488.7882,0.013709
3490.6519,0.013287
3492.5156,0.012545
3494.3792,0.012318
3496.2429,0.012685
3498.1066,0.012100
3499.9702,0.011767
3501.8339,0.012091
3503.6976,0.012195
3505.5612,0.011891
3507.4249,0.011219
3509.2886,0.010972
3511.1522,0.011556
3513.0159,0.011484
3514.8796,0.010988
3516.7432,0.010830
3518.6069,0.010521
3520.4706,0.010058
3522.3343,0.009797
3524.1979,0.009660
3526.0616,0.009418
3527.9253,0.009190
3529.7889,0.008732
3531.6526,0.008271
3533.5163,0.008668
3535.3799,0.008747
3537.2436,0.007836
3539.1073,0.007264
3540.9709,0.007440
3542.8346,0.008036
3544.6983,0.008243
3546.5620,0.007345
3548.4256,0.006206
3550.2893,0.006078
3552.1530,0.006534
3554.0166,0.006641
3555.8803,0.006067
3557.7440,0.005597
3559.6076,0.006026
3561.4713,0.006405
3563.3350,0.005268
3565.1986,0.003811
3567.0623,0.003929
3568.9260,0.004736
3570.7896,0.004585
3572.6533,0.004262
3574.5170,0.004067
3576.3807,0.004051
3578.2443,0.004002
3580.1080,0.003562
3581.9717,0.003371
3583.8353,0.003334
3585.6990,0.002939
3587.5627,0.002350
3589.4263,0.001839
3591.2900,0.001699
3593.1537,0.001618
3595.0173,0.001254
3596.8810,0.001174
3598.7447,0.001357
3600.6084,0.001175
3602.4720,0.000552
3604.3357,-0.000073
3606.1994,-0.000295
3608.0630,-0.000425
3609.9267,-0.000130
3611.7904,0.000314
3613.6540,-0.000514
3615.5177,-0.001427
3617.3814,-0.001488
3619.2450,-0.001264
3621.1087,-0.000827
3622.9724,-0.000954
3624.8360,-0.001489
3626.6997,-0.001976
3628.5634,-0.002517
3630.4271,-0.002583
3632.2907,-0.002035
3634.1544,-0.001769
3636.0181,-0.002147
3637.8817,-0.002629
3639.7454,-0.002592
3641.6091,-0.002786
3643.4727,-0.003367
3645.3364,-0.003667
3647.2001,-0.003685
3649.0637,-0.003560
3650.9274,-0.003388
3652.7911,-0.003174
3654.6547,-0.003545
3656.5184,-0.003805
3658.3821,-0.003448
3660.2458,-0.003235
3662.1094,-0.003602
3663.9731,-0.004240
3665.8368,-0.004443
3667.7004,-0.004167
3669.5641,-0.004206
3671.4278,-0.004325
3673.2914,-0.004253
3675.1551,-0.004768
3677.0188,-0.004946
3678.8824,-0.004726
3680.7461,-0.004792
3682.6098,-0.005031
3684.4735,-0.005237
3686.3371,-0.005119
3688.2008,-0.004874
3690.0645,-0.004575
3691.9281,-0.004644
3693.7918,-0.004954
3695.6555,-0.005063
3697.5191,-0.005012
3699.3828,-0.004937
3701.2465,-0.004888
3703.1101,-0.004704
3704.9738,-0.004603
3706.8375,-0.005077
3708.7011,-0.005336
3710.5648,-0.004768
3712.4285,-0.004358
3714.2922,-0.004312
3716.1558,-0.004603
3718.0195,-0.005061
3719.8832,-0.005381
3721.7468,-0.005505
3723.6105,-0.005317
3725.4742,-0.004818
3727.3378,-0.004353
3729.2015,-0.004484
3731.0652,-0.004612
3732.9288,-0.004517
3734.7925,-0.004397
3736.6562,-0.004287
3738.5199,-0.004499
3740.3835,-0.004878
3742.2472,-0.005101
3744.1109,-0.004940
3745.9745,-0.004227
3747.8382,-0.004208
3749.7019,-0.004630
3751.5655,-0.004422
3753.4292,-0.004033
3755.2929,-0.003997
3757.1565,-0.004414
3759.0202,-0.004742
3760.8839,-0.004352
3762.7475,-0.003956
3764.6112,-0.004094
3766.4749,-0.004237
3768.3386,-0.004175
3770.2022,-0.004323
3772.0659,-0.004313
3773.9296,-0.004272
3775.7932,-0.004355
3777.6569,-0.004435
3779.5206,-0.004775
3781.3842,-0.004820
3783.2479,-0.004338
3785.1116,-0.004397
3786.9752,-0.004668
3788.8389,-0.004592
3790.7026,-0.004259
3792.5662,-0.003920
3794.4299,-0.003894
3796.2936,-0.004454
3798.1573,-0.004535
3800.0209,-0.004217
3801.8846,-0.004054
3803.7483,-0.003939
3805.6119,-0.004551
3807.4756,-0.004712
3809.3393,-0.004225
3811.2029,-0.004384
3813.0666,-0.004552
3814.9303,-0.004477
3816.7939,-0.004040
3818.6576,-0.003620
3820.5213,-0.003922
3822.3850,-0.004375
3824.2486,-0.004451
3826.1123,-0.004367
3827.9760,-0.004167
3829.8396,-0.004239
3831.7033,-0.004512
3833.5670,-0.004524
3835.4306,-0.004208
3837.2943,-0.004348
3839.1580,-0.004500
3841.0216,-0.004167
3842.8853,-0.004242
3844.7490,-0.004361
3846.6126,-0.004307
3848.4763,-0.004222
3850.3400,-0.004057
3852.2037,-0.004532
3854.0673,-0.004727
3855.9310,-0.004269
3857.7947,-0.004446
3859.6583,-0.004579
3861.5220,-0.004428
3863.3857,-0.004375
3865.2493,-0.003912
3867.1130,-0.004015
3868.9767,-0.004438
3870.8403,-0.003942
3872.7040,-0.003466
3874.5677,-0.003742
3876.4314,-0.003730
3878.2950,-0.003742
3880.1587,-0.003774
3882.0224,-0.003443
3883.8860,-0.003041
3885.7497,-0.003197
3887.6134,-0.003533
3889.4770,-0.003558
3891.3407,-0.003475
3893.2044,-0.003440
3895.0680,-0.003508
3896.9317,-0.003779
3898.7954,-0.003777
3900.6590,-0.003317
3902.5227,-0.003316
3904.3864,-0.003529
3906.2501,-0.003481
3908.1137,-0.003456
3909.9774,-0.003499
3911.8411,-0.003475
3913.7047,-0.003388
3915.5684,-0.003144
3917.4321,-0.002998
3919.2957,-0.003412
3921.1594,-0.003456
3923.0231,-0.003121
3924.8867,-0.003183
3926.7504,-0.003097
3928.6141,-0.002846
3930.4777,-0.003009
3932.3414,-0.003174
3934.2051,-0.003200
3936.0688,-0.003037
3937.9324,-0.003322
3939.7961,-0.003631
3941.6598,-0.003507
3943.5234,-0.003290
3945.3871,-0.003129
3947.2508,-0.002887
3949.1144,-0.002898
3950.9781,-0.003113
3952.8418,-0.003170
3954.7054,-0.003260
3956.5691,-0.003116
3958.4328,-0.002832
3960.2965,-0.002774
3962.1601,-0.003104
3964.0238,-0.003504
3965.8875,-0.003313
3967.7511,-0.003125
3969.6148,-0.002978
3971.4785,-0.002791
3973.3421,-0.002559
3975.2058,-0.002727
3977.0695,-0.002781
3978.9331,-0.002730
3980.7968,-0.002964
3982.6605,-0.002904
3984.5241,-0.002812
3986.3878,-0.003183
3988.2515,-0.003214
3990.1152,-0.003191
3991.9788,-0.003199
3993.8425,-0.002994
3995.7062,-0.002919
3997.5698,-0.002760
3999.4335,-0.002751
