Wavenumber,Intensity
650.4205,0.104296
652.2841,0.103332
654.1478,0.101815
656.0115,0.099369
657.8751,0.098274
659.7388,0.097302
661.6025,0.095737
663.4661,0.096018
665.3298,0.097894
667.1935,0.098994
669.0571,0.094909
670.9208,0.093662
672.7845,0.094054
674.6481,0.094543
676.5118,0.094545
678.3755,0.093303
680.2392,0.094153
682.1028,0.094683
683.9665,0.092958
685.8302,0.091152
687.6938,0.089346
689.5575,0.088037
691.4212,0.087721
693.2848,0.088740
695.1485,0.089209
697.0122,0.087843
698.8758,0.086516
700.7395,0.085935
702.6032,0.085342
704.4669,0.084327
706.3305,0.084146
708.1942,0.084132
710.0579,0.082978
711.9215,0.082316
713.7852,0.081361
715.6489,0.079850
717.5125,0.079282
719.3762,0.079306
721.2399,0.078101
723.1035,0.075960
724.9672,0.075439
726.8309,0.075897
728.6945,0.074903
730.5582,0.073835
732.4219,0.073814
734.2856,0.073845
736.1492,0.073342
738.0129,0.072357
739.8766,0.071817
741.7402,0.071755
743.6039,0.071638
745.4676,0.071705
747.3312,0.071235
749.1949,0.070100
751.0586,0.069265
752.9222,0.069084
754.7859,0.068609
756.6496,0.067964
758.5132,0.067364
760.3769,0.067044
762.2406,0.067150
764.1043,0.067313
765.9679,0.067215
767.8316,0.066373
769.6953,0.065343
771.5589,0.064853
773.4226,0.064403
775.2863,0.063883
777.1499,0.062995
779.0136,0.062203
780.8773,0.061988
782.7409,0.061288
784.6046,0.060336
786.4683,0.059939
788.3320,0.059513
790.1956,0.058916
792.0593,0.058404
793.9230,0.058065
795.7866,0.057616
797.6503,0.057141
799.5140,0.056919
801.3776,0.056769
803.2413,0.056374
805.1050,0.056191
806.9686,0.056138
808.8323,0.055941
810.6960,0.055634
812.5596,0.055276
814.4233,0.055315
816.2870,0.055160
818.1507,0.054880
820.0143,0.054781
821.8780,0.054239
823.7417,0.053570
825.6053,0.052929
827.4690,0.052209
829.3327,0.051403
831.1963,0.050840
833.0600,0.050480
834.9237,0.050202
836.7873,0.049676
838.6510,0.049294
840.5147,0.049325
842.3784,0.049256
844.2420,0.048904
846.1057,0.048612
847.9694,0.048456
849.8330,0.048320
851.6967,0.048178
853.5604,0.048087
855.4240,0.048078
857.2877,0.048146
859.1514,0.048164
861.0150,0.048242
862.8787,0.048241
864.7424,0.048345
866.6060,0.048390
868.4697,0.048501
870.3334,0.048577
872.1971,0.048380
874.0607,0.048179
875.9244,0.047995
877.7881,0.047505
879.6517,0.046905
881.5154,0.046381
883.3791,0.045755
885.2427,0.045150
887.1064,0.044610
888.9701,0.044090
890.8337,0.043817
892.6974,0.043456
894.5611,0.042954
896.4247,0.042557
898.2884,0.042202
900.1521,0.041693
902.0158,0.041062
903.8794,0.040516
905.7431,0.040128
907.6068,0.039764
909.4704,0.039690
911.3341,0.039716
913.1978,0.039648
915.0614,0.039780
916.9251,0.040076
918.7888,0.040231
920.6524,0.040464
922.5161,0.040725
924.3798,0.040809
926.2435,0.040818
928.1071,0.040976
929.9708,0.041190
931.8345,0.041403
933.6981,0.041631
935.5618,0.041957
937.4255,0.042666
939.2891,0.043582
941.1528,0.044345
943.0165,0.045325
944.8801,0.046338
946.7438,0.047073
948.6075,0.047661
950.4711,0.048117
952.3348,0.048621
954.1985,0.049323
956.0622,0.050199
957.9258,0.051384
959.7895,0.053019
961.6532,0.055006
963.5168,0.057196
965.3805,0.059392
967.2442,0.061254
969.1078,0.062562
970.9715,0.063605
972.8352,0.064590
974.6988,0.065631
976.5625,0.066921
978.4262,0.068518
980.2899,0.070200
982.1535,0.071860
984.0172,0.073563
985.8809,0.075139
987.7445,0.076574
989.6082,0.078068
991.4719,0.079515
993.3355,0.080885
995.1992,0.082342
997.0629,0.083750
998.9265,0.084932
1000.7902,0.085974
1002.6539,0.087096
1004.5175,0.088333
1006.3812,0.089727
1008.2449,0.091402
1010.1086,0.093387
1011.9722,0.095648
1013.8359,0.098190
1015.6996,0.100745
1017.5632,0.103250
1019.4269,0.105471
1021.2906,0.107123
1023.1542,0.108375
1025.0179,0.109647
1026.8816,0.110904
1028.7452,0.112137
1030.6089,0.113376
1032.4726,0.114441
1034.3362,0.115186
1036.1999,0.115820
1038.0636,0.116275
1039.9273,0.116474
1041.7909,0.116534
1043.6546,0.116569
1045.5183,0.116761
1047.3819,0.117060
1049.2456,0.117357
1051.1093,0.117956
1052.9729,0.118724
1054.8366,0.119469
1056.7003,0.120195
1058.5639,0.120945
1060.4276,0.121658
1062.2913,0.122092
1064.1550,0.122378
1066.0186,0.122745
1067.8823,0.122992
1069.7460,0.123054
1071.6096,0.122825
1073.4733,0.122207
1075.3370,0.121160
1077.2006,0.119635
1079.0643,0.117731
1080.9280,0.115398
1082.7916,0.112843
1084.6553,0.110046
1086.5190,0.107101
1088.3826,0.104426
1090.2463,0.102008
1092.1100,0.099631
1093.9737,0.097371
1095.8373,0.095306
1097.7010,0.093453
1099.5647,0.091553
1101.4283,0.089610
1103.2920,0.087893
1105.1557,0.086270
1107.0193,0.084628
1108.8830,0.083118
1110.7467,0.081750
1112.6103,0.080276
1114.4740,0.078746
1116.3377,0.077108
1118.2014,0.075334
1120.0650,0.073540
1121.9287,0.071746
1123.7924,0.069989
1125.6560,0.068282
1127.5197,0.066533
1129.3834,0.064777
1131.2470,0.062981
1133.1107,0.061119
1134.9744,0.059172
1136.8380,0.057142
1138.7017,0.055175
1140.5654,0.053355
1142.4290,0.051808
1144.2927,0.050558
1146.1564,0.049482
1148.0201,0.048587
1149.8837,0.047758
1151.7474,0.047087
1153.6111,0.046555
1155.4747,0.046004
1157.3384,0.045293
1159.2021,0.044516
1161.0657,0.043640
1162.9294,0.042729
1164.7931,0.041822
1166.6567,0.040744
1168.5204,0.039437
1170.3841,0.037988
1172.2477,0.036503
1174.1114,0.034884
1175.9751,0.033255
1177.8388,0.031822
1179.7024,0.030779
1181.5661,0.030172
1183.4298,0.029735
1185.2934,0.029627
1187.1571,0.029772
1189.0208,0.029949
1190.8844,0.030249
1192.7481,0.030702
1194.6118,0.031266
1196.4754,0.031929
1198.3391,0.032690
1200.2028,0.033548
1202.0665,0.034374
1203.9301,0.035069
1205.7938,0.035576
1207.6575,0.035926
1209.5211,0.036247
1211.3848,0.036584
1213.2485,0.036914
1215.1121,0.037290
1216.9758,0.037875
1218.8395,0.038615
1220.7031,0.039379
1222.5668,0.040232
1224.4305,0.041114
1226.2941,0.041944
1228.1578,0.042704
1230.0215,0.043412
1231.8852,0.044120
1233.7488,0.044713
1235.6125,0.045157
1237.4762,0.045465
1239.3398,0.045695
1241.2035,0.045800
1243.0672,0.045742
1244.9308,0.045599
1246.7945,0.045268
1248.6582,0.044719
1250.5218,0.044233
1252.3855,0.043821
1254.2492,0.043486
1256.1129,0.042979
1257.9765,0.042487
1259.8402,0.042110
1261.7039,0.041751
1263.5675,0.041401
1265.4312,0.041089
1267.2949,0.040802
1269.1585,0.040550
1271.0222,0.040380
1272.8859,0.040226
1274.7495,0.040024
1276.6132,0.039803
1278.4769,0.039724
1280.3405,0.039690
1282.2042,0.039554
1284.0679,0.039445
1285.9316,0.039365
1287.7952,0.039395
1289.6589,0.039570
1291.5226,0.039759
1293.3862,0.039938
1295.2499,0.040235
1297.1136,0.040669
1298.9772,0.041087
1300.8409,0.041679
1302.7046,0.042215
1304.5682,0.042675
1306.4319,0.043153
1308.2956,0.043611
1310.1592,0.044060
1312.0229,0.044484
1313.8866,0.044692
1315.7503,0.044765
1317.6139,0.044913
1319.4776,0.044884
1321.3413,0.044599
1323.2049,0.044241
1325.0686,0.044030
1326.9323,0.043874
1328.7959,0.043608
1330.6596,0.043393
1332.5233,0.043362
1334.3869,0.043284
1336.2506,0.043255
1338.1143,0.043575
1339.9780,0.044008
1341.8416,0.044015
1343.7053,0.043686
1345.5690,0.043504
1347.4326,0.043351
1349.2963,0.043215
1351.1600,0.043040
1353.0236,0.042969
1354.8873,0.042985
1356.7510,0.042911
1358.6146,0.043006
1360.4783,0.043610
1362.3420,0.044843
1364.2056,0.046109
1366.0693,0.046834
1367.9330,0.047847
1369.7967,0.049024
1371.6603,0.049912
1373.5240,0.051415
1375.3877,0.052948
1377.2513,0.053557
1379.1150,0.054034
1380.9787,0.054441
1382.8423,0.054796
1384.7060,0.055206
1386.5697,0.056214
1388.4333,0.057301
1390.2970,0.057471
1392.1607,0.057637
1394.0244,0.058734
1395.8880,0.060131
1397.7517,0.060722
1399.6154,0.061424
1401.4790,0.061388
1403.3427,0.061175
1405.2064,0.061310
1407.0700,0.060771
1408.9337,0.059812
1410.7974,0.058863
1412.6610,0.057805
1414.5247,0.056399
1416.3884,0.055066
1418.2520,0.054817
1420.1157,0.054940
1421.9794,0.053767
1423.8431,0.053116
1425.7067,0.052720
1427.5704,0.052168
1429.4341,0.052533
1431.2977,0.053138
1433.1614,0.053181
1435.0251,0.053985
1436.8887,0.056349
1438.7524,0.056812
1440.6161,0.056294
1442.4797,0.056435
1444.3434,0.056465
1446.2071,0.056489
1448.0707,0.056800
1449.9344,0.056534
1451.7981,0.055396
1453.6618,0.054264
1455.5254,0.053744
1457.3891,0.054645
1459.2528,0.052840
1461.1164,0.050340
1462.9801,0.048826
1464.8438,0.048491
1466.7074,0.047344
1468.5711,0.045435
1470.4348,0.043959
1472.2984,0.043915
1474.1621,0.043632
1476.0258,0.042438
1477.8895,0.041446
1479.7531,0.040706
1481.6168,0.040596
1483.4805,0.040650
1485.3441,0.040711
1487.2078,0.041886
1489.0715,0.043976
1490.9351,0.045919
1492.7988,0.046503
1494.6625,0.047515
1496.5261,0.050792
1498.3898,0.053757
1500.2535,0.054987
1502.1171,0.055517
1503.9808,0.056384
1505.8445,0.061547
1507.7082,0.069224
1509.5718,0.070069
1511.4355,0.070996
1513.2992,0.072813
1515.1628,0.074477
1517.0265,0.077016
1518.8902,0.078039
1520.7538,0.080009
1522.6175,0.083395
1524.4812,0.083757
1526.3448,0.085164
1528.2085,0.086391
1530.0722,0.086784
1531.9359,0.087699
1533.7995,0.090231
1535.6632,0.089981
1537.5269,0.088633
1539.3905,0.091916
1541.2542,0.096319
1543.1179,0.095668
1544.9815,0.094744
1546.8452,0.093153
1548.7089,0.091532
1550.5725,0.090713
1552.4362,0.088805
1554.2999,0.086655
1556.1635,0.084686
1558.0272,0.084738
1559.8909,0.087183
1561.7546,0.083544
1563.6182,0.079992
1565.4819,0.077811
1567.3456,0.075896
1569.2092,0.074795
1571.0729,0.073526
1572.9366,0.070827
1574.8002,0.069274
1576.6639,0.069458
1578.5276,0.068247
1580.3912,0.066487
1582.2549,0.065549
1584.1186,0.064785
1585.9822,0.064465
1587.8459,0.064369
1589.7096,0.064610
1591.5733,0.065073
1593.4369,0.065713
1595.3006,0.066571
1597.1643,0.067593
1599.0279,0.068725
1600.8916,0.070480
1602.7553,0.072317
1604.6189,0.074192
1606.4826,0.076391
1608.3463,0.079092
1610.2099,0.081466
1612.0736,0.083452
1613.9373,0.085142
1615.8010,0.088893
1617.6646,0.094065
1619.5283,0.095075
1621.3920,0.095972
1623.2556,0.099705
1625.1193,0.102318
1626.9830,0.103276
1628.8466,0.104842
1630.7103,0.105299
1632.5740,0.104737
1634.4376,0.105595
1636.3013,0.108392
1638.1650,0.107467
1640.0286,0.105208
1641.8923,0.103161
1643.7560,0.100856
1645.6197,0.099964
1647.4833,0.100280
1649.3470,0.097379
1651.2107,0.093524
1653.0743,0.094676
1654.9380,0.094112
1656.8017,0.089645
1658.6653,0.085779
1660.5290,0.082795
1662.3927,0.080234
1664.2563,0.077356
1666.1200,0.073671
1667.9837,0.070511
1669.8474,0.068161
1671.7110,0.065149
1673.5747,0.061564
1675.4384,0.058786
1677.3020,0.055612
1679.1657,0.052081
1681.0294,0.048554
1682.8930,0.045216
1684.7567,0.042383
1686.6204,0.039254
1688.4840,0.035689
1690.3477,0.032335
1692.2114,0.029138
1694.0750,0.025557
1695.9387,0.021968
1697.8024,0.019356
1699.6661,0.016561
1701.5297,0.014443
1703.3934,0.012457
1705.2571,0.010743
1707.1207,0.009511
1708.9844,0.008331
1710.8481,0.007275
1712.7117,0.006647
1714.5754,0.005997
1716.4391,0.005279
1718.3027,0.004868
1720.1664,0.004505
1722.0301,0.003818
1723.8937,0.003256
1725.7574,0.002827
1727.6211,0.002499
1729.4848,0.002297
1731.3484,0.002306
1733.2121,0.001789
1735.0758,0.001747
1736.9394,0.001624
1738.8031,0.001223
1740.6668,0.001037
1742.5304,0.000883
1744.3941,0.000686
1746.2578,0.000574
1748.1214,0.000498
1749.9851,0.000432
1751.8488,0.000239
1753.7125,0.000042
1755.5761,-0.000326
1757.4398,-0.000350
1759.3035,-0.000336
1761.1671,-0.000453
1763.0308,-0.000217
1764.8945,-0.000018
1766.7581,-0.000336
1768.6218,-0.000443
1770.4855,-0.000545
1772.3491,-0.000515
1774.2128,-0.000409
1776.0765,-0.000537
1777.9401,-0.000471
1779.8038,-0.000307
1781.6675,-0.000243
1783.5312,-0.000437
1785.3948,-0.000552
1787.2585,-0.000400
1789.1222,-0.000507
1790.9858,-0.000756
1792.8495,-0.000655
1794.7132,-0.000645
1796.5768,-0.000739
1798.4405,-0.000703
1800.3042,-0.000794
1802.1678,-0.000665
1804.0315,-0.000585
1805.8952,-0.000662
1807.7589,-0.000682
1809.6225,-0.000718
1811.4862,-0.000938
1813.3499,-0.001072
1815.2135,-0.000999
1817.0772,-0.000864
1818.9409,-0.000744
1820.8045,-0.000519
1822.6682,-0.000535
1824.5319,-0.000549
1826.3955,-0.000327
1828.2592,-0.000316
1830.1229,-0.000330
1831.9865,-0.000317
1833.8502,-0.000480
1835.7139,-0.000488
1837.5776,-0.000513
1839.4412,-0.000465
1841.3049,-0.000409
1843.1686,-0.000294
1845.0322,-0.000164
1846.8959,-0.000161
1848.7596,-0.000266
1850.6232,-0.000445
1852.4869,-0.000483
1854.3506,-0.000355
1856.2142,-0.000500
1858.0779,-0.000667
1859.9416,-0.000634
1861.8052,-0.000529
1863.6689,-0.000539
1865.5326,-0.000268
1867.3963,0.000374
1869.2599,0.000640
1871.1236,0.000143
1872.9873,-0.000218
1874.8509,-0.000344
1876.7146,-0.000384
1878.5783,-0.000267
1880.4419,-0.000156
1882.3056,-0.000139
1884.1693,0.000009
1886.0329,-0.000048
1887.8966,-0.000398
1889.7603,-0.000342
1891.6240,0.000001
1893.4876,0.000168
1895.3513,0.000380
1897.2150,0.000589
1899.0786,0.000288
1900.9423,-0.000336
1902.8060,-0.000308
1904.6696,0.000246
1906.5333,0.000617
1908.3970,0.000371
1910.2606,0.000186
1912.1243,0.000349
1913.9880,0.000486
1915.8516,0.000461
1917.7153,0.000943
1919.5790,0.000990
1921.4427,0.000395
1923.3063,0.000333
1925.1700,0.000648
1927.0337,0.000886
1928.8973,0.001015
1930.7610,0.000539
1932.6247,0.000439
1934.4883,0.000795
1936.3520,0.000629
1938.2157,0.000591
1940.0793,0.000827
1941.9430,0.000970
1943.8067,0.001311
1945.6704,0.001605
1947.5340,0.001465
1949.3977,0.001099
1951.2614,0.001031
1953.1250,0.001388
1954.9887,0.001718
1956.8524,0.001764
1958.7160,0.001924
1960.5797,0.001879
1962.4434,0.002453
1964.3070,0.003372
1966.1707,0.003155
1968.0344,0.002769
1969.8980,0.002698
1971.7617,0.002300
1973.6254,0.002754
1975.4891,0.004565
1977.3527,0.005512
1979.2164,0.005288
1981.0801,0.005120
1982.9437,0.004447
1984.8074,0.003689
1986.6711,0.003489
1988.5347,0.004341
1990.3984,0.004457
1992.2621,0.003596
1994.1257,0.003566
1995.9894,0.004363
1997.8531,0.004041
1999.7167,0.003170
2001.5804,0.003467
2003.4441,0.003394
2005.3078,0.003089
2007.1714,0.003072
2009.0351,0.002991
2010.8988,0.003123
2012.7624,0.003778
2014.6261,0.004879
2016.4898,0.004436
2018.3534,0.003148
2020.2171,0.003457
2022.0808,0.004914
2023.9444,0.005813
2025.8081,0.005416
2027.6718,0.004336
2029.5355,0.003455
2031.3991,0.003754
2033.2628,0.005220
2035.1265,0.006517
2036.9901,0.007222
2038.8538,0.007275
2040.7175,0.006357
2042.5811,0.005392
2044.4448,0.005332
2046.3085,0.005685
2048.1721,0.006768
2050.0358,0.007953
2051.8995,0.007018
2053.7631,0.005541
2055.6268,0.005303
2057.4905,0.005528
2059.3542,0.005641
2061.2178,0.005308
2063.0815,0.005088
2064.9452,0.004976
2066.8088,0.005332
2068.6725,0.005886
2070.5362,0.005655
2072.3998,0.004960
2074.2635,0.004641
2076.1272,0.004975
2077.9908,0.004873
2079.8545,0.004305
2081.7182,0.004063
2083.5819,0.003958
2085.4455,0.003452
2087.3092,0.003425
2089.1729,0.003705
2091.0365,0.003168
2092.9002,0.002632
2094.7639,0.002986
2096.6275,0.003857
2098.4912,0.004370
2100.3549,0.004263
2102.2185,0.003943
2104.0822,0.003580
2105.9459,0.002997
2107.8095,0.003006
2109.6732,0.003744
2111.5369,0.004149
2113.4006,0.003892
2115.2642,0.003245
2117.1279,0.002961
2118.9916,0.002837
2120.8552,0.002828
2122.7189,0.003001
2124.5826,0.002760
2126.4462,0.002533
2128.3099,0.002676
2130.1736,0.002646
2132.0372,0.002349
2133.9009,0.001962
2135.7646,0.002290
2137.6282,0.003149
2139.4919,0.003691
2141.3556,0.003521
2143.2193,0.002614
2145.0829,0.002229
2146.9466,0.003779
2148.8103,0.005654
2150.6739,0.004492
2152.5376,0.001817
2154.4013,0.002026
2156.2649,0.003991
2158.1286,0.005553
2159.9923,0.007479
2161.8559,0.008117
2163.7196,0.007704
2165.5833,0.008038
2167.4470,0.007754
2169.3106,0.006597
2171.1743,0.006043
2173.0380,0.006338
2174.9016,0.005898
2176.7653,0.004938
2178.6290,0.005698
2180.4926,0.006887
2182.3563,0.006668
2184.2200,0.006615
2186.0836,0.006817
2187.9473,0.006628
2189.8110,0.006376
2191.6746,0.005568
2193.5383,0.004990
2195.4020,0.005416
2197.2657,0.005487
2199.1293,0.005108
2200.9930,0.004680
2202.8567,0.005103
2204.7203,0.005717
2206.5840,0.005997
2208.4477,0.005769
2210.3113,0.005326
2212.1750,0.005604
2214.0387,0.005257
2215.9023,0.004514
2217.7660,0.004752
2219.6297,0.004643
2221.4934,0.005004
2223.3570,0.005526
2225.2207,0.005541
2227.0844,0.005390
2228.9480,0.004969
2230.8117,0.004539
2232.6754,0.004718
2234.5390,0.005120
2236.4027,0.004716
2238.2664,0.003975
2240.1300,0.004203
2241.9937,0.004572
2243.8574,0.004662
2245.7210,0.004269
2247.5847,0.003767
2249.4484,0.004145
2251.3121,0.004438
2253.1757,0.004092
2255.0394,0.004133
2256.9031,0.004088
2258.7667,0.004092
2260.6304,0.004444
2262.4941,0.004432
2264.3577,0.003963
2266.2214,0.003815
2268.0851,0.004126
2269.9487,0.004298
2271.8124,0.004161
2273.6761,0.004149
2275.5397,0.003819
2277.4034,0.003781
2279.2671,0.004119
2281.1308,0.004551
2282.9944,0.004474
2284.8581,0.004266
2286.7218,0.004144
2288.5854,0.003858
2290.4491,0.003409
2292.3128,0.003388
2294.1764,0.003473
2296.0401,0.003212
2297.9038,0.002970
2299.7674,0.003076
2301.6311,0.003329
2303.4948,0.003036
2305.3585,0.002495
2307.2221,0.002595
2309.0858,0.003125
2310.9495,0.003205
2312.8131,0.003087
2314.6768,0.002998
2316.5405,0.002807
2318.4041,0.002792
2320.2678,0.002747
2322.1315,0.002902
2323.9951,0.003282
2325.8588,0.003053
2327.7225,0.002241
2329.5861,0.001896
2331.4498,0.002158
2333.3135,0.002292
2335.1772,0.001999
2337.0408,0.001748
2338.9045,0.002206
2340.7682,0.002627
2342.6318,0.002495
2344.4955,0.002190
2346.3592,0.002286
2348.2228,0.002186
2350.0865,0.001677
2351.9502,0.001352
2353.8138,0.001657
2355.6775,0.002079
2357.5412,0.002337
2359.4049,0.003154
2361.2685,0.003019
2363.1322,0.001992
2364.9959,0.001696
2366.8595,0.001562
2368.7232,0.001928
2370.5869,0.002445
2372.4505,0.002377
2374.3142,0.001765
2376.1779,0.001416
2378.0415,0.001765
2379.9052,0.002037
2381.7689,0.002095
2383.6325,0.001783
2385.4962,0.001484
2387.3599,0.001522
2389.2236,0.001633
2391.0872,0.001824
2392.9509,0.001801
2394.8146,0.001686
2396.6782,0.001843
2398.5419,0.001784
2400.4056,0.001637
2402.2692,0.001706
2404.1329,0.001876
2405.9966,0.001686
2407.8602,0.001648
2409.7239,0.001962
2411.5876,0.002292
2413.4512,0.002238
2415.3149,0.002194
2417.1786,0.002351
2419.0423,0.002220
2420.9059,0.002190
2422.7696,0.002426
2424.6333,0.002573
2426.4969,0.002644
2428.3606,0.002761
2430.2243,0.002698
2432.0879,0.002412
2433.9516,0.002443
2435.8153,0.002557
2437.6789,0.002524
2439.5426,0.002747
2441.4063,0.003089
2443.2700,0.002848
2445.1336,0.002521
2446.9973,0.002711
2448.8610,0.003027
2450.7246,0.002881
2452.5883,0.002886
2454.4520,0.003279
2456.3156,0.003292
2458.1793,0.002869
2460.0430,0.002632
2461.9066,0.002816
2463.7703,0.002868
2465.6340,0.002876
2467.4976,0.002840
2469.3613,0.002728
2471.2250,0.002718
2473.0887,0.002870
2474.9523,0.003019
2476.8160,0.003211
2478.6797,0.003355
2480.5433,0.003043
2482.4070,0.002578
2484.2707,0.002599
2486.1343,0.002940
2487.9980,0.002922
2489.8617,0.002800
2491.7253,0.002695
2493.5890,0.002631
2495.4527,0.002999
2497.3164,0.003007
2499.1800,0.002881
2501.0437,0.002832
2502.9074,0.002686
2504.7710,0.002693
2506.6347,0.003062
2508.4984,0.003249
2510.3620,0.002991
2512.2257,0.002970
2514.0894,0.003039
2515.9530,0.002968
2517.8167,0.003279
2519.6804,0.003232
2521.5440,0.002833
2523.4077,0.002813
2525.2714,0.002939
2527.1351,0.003007
2528.9987,0.003203
2530.8624,0.003136
2532.7261,0.002895
2534.5897,0.003115
2536.4534,0.003358
2538.3171,0.003419
2540.1807,0.003378
2542.0444,0.003425
2543.9081,0.003291
2545.7717,0.002816
2547.6354,0.002991
2549.4991,0.003598
2551.3627,0.003638
2553.2264,0.003346
2555.0901,0.003340
2556.9538,0.003436
2558.8174,0.003431
2560.6811,0.003340
2562.5448,0.003371
2564.4084,0.003714
2566.2721,0.003712
2568.1358,0.003491
2569.9994,0.003673
2571.8631,0.003613
2573.7268,0.003567
2575.5904,0.003949
2577.4541,0.004071
2579.3178,0.003893
2581.1815,0.003566
2583.0451,0.003532
2584.9088,0.003550
2586.7725,0.003798
2588.6361,0.004087
2590.4998,0.004215
2592.3635,0.004289
2594.2271,0.004176
2596.0908,0.004003
2597.9545,0.004109
2599.8181,0.004501
2601.6818,0.004609
2603.5455,0.004420
2605.4091,0.004145
2607.2728,0.004338
2609.1365,0.004704
2611.0002,0.004797
2612.8638,0.004952
2614.7275,0.005035
2616.5912,0.004942
2618.4548,0.004862
2620.3185,0.004855
2622.1822,0.004879
2624.0458,0.004874
2625.9095,0.004945
2627.7732,0.004954
2629.6368,0.005150
2631.5005,0.005434
2633.3642,0.005526
2635.2279,0.005337
2637.0915,0.005244
2638.9552,0.005456
2640.8189,0.005619
2642.6825,0.005599
2644.5462,0.005564
2646.4099,0.005635
2648.2735,0.005656
2650.1372,0.005647
2652.0009,0.005786
2653.8645,0.005801
2655.7282,0.005721
2657.5919,0.005820
2659.4555,0.006003
2661.3192,0.005893
2663.1829,0.005729
2665.0466,0.005834
2666.9102,0.005971
2668.7739,0.005890
2670.6376,0.005890
2672.5012,0.005988
2674.3649,0.006010
2676.2286,0.006085
2678.0922,0.006194
2679.9559,0.006361
2681.8196,0.006293
2683.6832,0.006381
2685.5469,0.006564
2687.4106,0.006764
2689.2742,0.007017
2691.1379,0.006928
2693.0016,0.006912
2694.8653,0.007161
2696.7289,0.007241
2698.5926,0.007363
2700.4563,0.007554
2702.3199,0.007517
2704.1836,0.007515
2706.0473,0.007708
2707.9109,0.007723
2709.7746,0.007889
2711.6383,0.008126
2713.5019,0.008165
2715.3656,0.008101
2717.2293,0.008271
2719.0930,0.008407
2720.9566,0.008487
2722.8203,0.008666
2724.6840,0.008837
2726.5476,0.008891
2728.4113,0.008858
2730.2750,0.009007
2732.1386,0.009114
2734.0023,0.009327
2735.8660,0.009474
2737.7296,0.009390
2739.5933,0.009560
2741.4570,0.009727
2743.3206,0.009840
2745.1843,0.010159
2747.0480,0.010304
2748.9117,0.010288
2750.7753,0.010412
2752.6390,0.010422
2754.5027,0.010469
2756.3663,0.010612
2758.2300,0.010887
2760.0937,0.011073
2761.9573,0.011021
2763.8210,0.011287
2765.6847,0.011569
2767.5483,0.011662
2769.4120,0.011830
2771.2757,0.011924
2773.1394,0.011925
2775.0030,0.011999
2776.8667,0.012250
2778.7304,0.012463
2780.5940,0.012619
2782.4577,0.012829
2784.3214,0.013014
2786.1850,0.013081
2788.0487,0.013197
2789.9124,0.013376
2791.7760,0.013269
2793.6397,0.013304
2795.5034,0.013580
2797.3670,0.013922
2799.2307,0.014069
2801.0944,0.014188
2802.9581,0.014499
2804.8217,0.014665
2806.6854,0.014591
2808.5491,0.014831
2810.4127,0.015121
2812.2764,0.015178
2814.1401,0.015309
2816.0037,0.015485
2817.8674,0.015527
2819.7311,0.015810
2821.5947,0.016058
2823.4584,0.016108
2825.3221,0.016397
2827.1857,0.016701
2829.0494,0.016822
2830.9131,0.017079
2832.7768,0.017476
2834.6404,0.017761
2836.5041,0.018067
2838.3678,0.018147
2840.2314,0.018281
2842.0951,0.018630
2843.9588,0.018891
2845.8224,0.019251
2847.6861,0.019696
2849.5498,0.019974
2851.4134,0.020460
2853.2771,0.020991
2855.1408,0.021058
2857.0045,0.020938
2858.8681,0.021403
2860.7318,0.021734
2862.5955,0.021853
2864.4591,0.022277
2866.3228,0.022684
2868.1865,0.023048
2870.0501,0.023694
2871.9138,0.024125
2873.7775,0.024140
2875.6411,0.023892
2877.5048,0.023856
2879.3685,0.024148
2881.2321,0.024223
2883.0958,0.023990
2884.9595,0.024146
2886.8232,0.024389
2888.6868,0.024325
2890.5505,0.024270
2892.4142,0.024467
2894.2778,0.024796
2896.1415,0.024866
2898.0052,0.024953
2899.8688,0.025258
2901.7325,0.025482
2903.5962,0.025534
2905.4598,0.025692
2907.3235,0.026187
2909.1872,0.026792
2911.0509,0.027337
2912.9145,0.027586
2914.7782,0.027773
2916.6419,0.028241
2918.5055,0.028570
2920.3692,0.028857
2922.2329,0.028962
2924.0965,0.029112
2925.9602,0.029506
2927.8239,0.029576
2929.6875,0.029673
2931.5512,0.029946
2933.4149,0.030186
2935.2785,0.030180
2937.1422,0.029693
2939.0059,0.029529
2940.8696,0.029530
2942.7332,0.029319
2944.5969,0.029357
2946.4606,0.029717
2948.3242,0.029783
2950.1879,0.029638
2952.0516,0.029746
2953.9152,0.029838
2955.7789,0.029952
2957.6426,0.030233
2959.5062,0.030170
2961.3699,0.030011
2963.2336,0.029822
2965.0972,0.029655
2966.9609,0.029755
2968.8246,0.029778
2970.6883,0.029470
2972.5519,0.029203
2974.4156,0.029305
2976.2793,0.029168
2978.1429,0.028990
2980.0066,0.028667
2981.8703,0.028399
2983.7339,0.028056
2985.5976,0.027975
2987.4613,0.027964
2989.3249,0.027976
2991.1886,0.028015
2993.0523,0.027931
2994.9160,0.027621
2996.7796,0.027639
2998.6433,0.027707
3000.5070,0.027700
3002.3706,0.027822
3004.2343,0.027971
3006.0980,0.028132
3007.9616,0.028329
3009.8253,0.028607
3011.6890,0.028912
3013.5526,0.029002
3015.4163,0.029041
3017.2800,0.029425
3019.1436,0.029811
3021.0073,0.029896
3022.8710,0.030112
3024.7347,0.030335
3026.5983,0.030559
3028.4620,0.030800
3030.3257,0.031050
3032.1893,0.031504
3034.0530,0.031805
3035.9167,0.032038
3037.7803,0.032428
3039.6440,0.032797
3041.5077,0.032969
3043.3713,0.033076
3045.2350,0.033676
3047.0987,0.034096
3048.9624,0.034216
3050.8260,0.034433
3052.6897,0.034550
3054.5534,0.034739
3056.4170,0.035286
3058.2807,0.035595
3060.1444,0.035676
3062.0080,0.035669
3063.8717,0.035853
3065.7354,0.036167
3067.5990,0.036247
3069.4627,0.036231
3071.3264,0.036426
3073.1900,0.036786
3075.0537,0.037221
3076.9174,0.037280
3078.7811,0.037214
3080.6447,0.037279
3082.5084,0.037633
3084.3721,0.037662
3086.2357,0.037155
3088.0994,0.037159
3089.9631,0.037653
3091.8267,0.037639
3093.6904,0.037371
3095.5541,0.037702
3097.4177,0.038073
3099.2814,0.037998
3101.1451,0.037891
3103.0087,0.037695
3104.8724,0.037948
3106.7361,0.038486
3108.5998,0.038863
3110.4634,0.038944
3112.3271,0.038918
3114.1908,0.038848
3116.0544,0.039230
3117.9181,0.039082
3119.7818,0.039041
3121.6454,0.039458
3123.5091,0.039698
3125.3728,0.039987
3127.2364,0.040335
3129.1001,0.040436
3130.9638,0.040434
3132.8275,0.040675
3134.6911,0.041179
3136.5548,0.041617
3138.4185,0.041623
3140.2821,0.041740
3142.1458,0.042259
3144.0095,0.042609
3145.8731,0.042806
3147.7368,0.043043
3149.6005,0.043308
3151.4641,0.043408
3153.3278,0.043797
3155.1915,0.044330
3157.0551,0.044576
3158.9188,0.045018
3160.7825,0.045586
3162.6462,0.045656
3164.5098,0.045876
3166.3735,0.046073
3168.2372,0.046199
3170.1008,0.046569
3171.9645,0.046953
3173.8282,0.047081
3175.6918,0.047227
3177.5555,0.047702
3179.4192,0.048191
3181.2828,0.048488
3183.1465,0.048970
3185.0102,0.049124
3186.8739,0.049199
3188.7375,0.049398
3190.6012,0.049333
3192.4649,0.049400
3194.3285,0.049920
3196.1922,0.050382
3198.0559,0.050728
3199.9195,0.050679
3201.7832,0.050735
3203.6469,0.050706
3205.5105,0.050534
3207.3742,0.050925
3209.2379,0.051541
3211.1015,0.051492
3212.9652,0.051273
3214.8289,0.051653
3216.6926,0.051953
3218.5562,0.051824
3220.4199,0.051902
3222.2836,0.052122
3224.1472,0.052430
3226.0109,0.052419
3227.8746,0.052173
3229.7382,0.052612
3231.6019,0.053398
3233.4656,0.053198
3235.3292,0.052742
3237.1929,0.052772
3239.0566,0.053078
3240.9202,0.053232
3242.7839,0.053128
3244.6476,0.053295
3246.5113,0.053910
3248.3749,0.054226
3250.2386,0.054416
3252.1023,0.054322
3253.9659,0.054246
3255.8296,0.054400
3257.6933,0.054223
3259.5569,0.054194
3261.4206,0.054739
3263.2843,0.054886
3265.1479,0.054867
3267.0116,0.055129
3268.8753,0.055442
3270.7390,0.055291
3272.6026,0.054775
3274.4663,0.054630
3276.3300,0.054973
3278.1936,0.054915
3280.0573,0.054827
3281.9210,0.055023
3283.7846,0.054781
3285.6483,0.054295
3287.5120,0.053809
3289.3756,0.053632
3291.2393,0.054118
3293.1030,0.053962
3294.9666,0.053283
3296.8303,0.052790
3298.6940,0.052496
3300.5577,0.052689
3302.4213,0.052529
3304.2850,0.052066
3306.1487,0.052064
3308.0123,0.051743
3309.8760,0.051264
3311.7397,0.050948
3313.6033,0.050879
3315.4670,0.050720
3317.3307,0.049942
3319.1943,0.049258
3321.0580,0.049321
3322.9217,0.049551
3324.7854,0.049833
3326.6490,0.049645
3328.5127,0.049117
3330.3764,0.048657
3332.2400,0.048552
3334.1037,0.048587
3335.9674,0.048369
3337.8310,0.048469
3339.6947,0.048119
3341.5584,0.047456
3343.4220,0.047690
3345.2857,0.047848
3347.1494,0.047782
3349.0130,0.047559
3350.8767,0.047098
3352.7404,0.046535
3354.6041,0.046365
3356.4677,0.046340
3358.3314,0.046082
3360.1951,0.045972
3362.0587,0.045818
3363.9224,0.045565
3365.7861,0.045324
3367.6497,0.044863
3369.5134,0.044706
3371.3771,0.044946
3373.2407,0.044617
3375.1044,0.044053
3376.9681,0.044268
3378.8317,0.044617
3380.6954,0.044635
3382.5591,0.044332
3384.4228,0.043418
3386.2864,0.042489
3388.1501,0.042044
3390.0138,0.041989
3391.8774,0.042126
3393.7411,0.042118
3395.6048,0.041817
3397.4684,0.041171
3399.3321,0.041151
3401.1958,0.041429
3403.0594,0.041293
3404.9231,0.040737
3406.7868,0.040112
3408.6505,0.040167
3410.5141,0.040191
3412.3778,0.039326
3414.2415,0.038736
3416.1051,0.039079
3417.9688,0.039304
3419.8325,0.038856
3421.6961,0.038294
3423.5598,0.038135
3425.4235,0.037921
3427.2871,0.036997
3429.1508,0.036465
3431.0145,0.036631
3432.8781,0.036348
3434.7418,0.036047
3436.6055,0.035878
3438.4692,0.035445
3440.3328,0.035374
3442.1965,0.035218
3444.0602,0.034503
3445.9238,0.034229
3447.7875,0.034248
3449.6512,0.033964
3451.5148,0.033397
3453.3785,0.032732
3455.2422,0.032575
3457.1058,0.032992
3458.9695,0.032809
3460.8332,0.031909
3462.6969,0.031061
3464.5605,0.030401
3466.4242,0.029699
3468.2879,0.029775
3470.1515,0.030178
3472.0152,0.029653
3473.8789,0.029007
3475.7425,0.028751
3477.6062,0.028669
3479.4699,0.028358
3481.3335,0.027572
3483.1972,0.026891
3485.0609,0.026540
3486.9245,0.026237
3488.7882,0.025763
3490.6519,0.025126
3492.5156,0.024516
3494.3792,0.024240
3496.2429,0.023816
3498.1066,0.023326
3499.9702,0.022974
3501.8339,0.023110
3503.6976,0.023124
3505.5612,0.022062
3507.4249,0.021431
3509.2886,0.021757
3511.1522,0.021527
3513.0159,0.020661
3514.8796,0.020071
3516.7432,0.019893
3518.6069,0.019482
3520.4706,0.019172
3522.3343,0.018914
3524.1979,0.018235
3526.0616,0.017281
3527.9253,0.017088
3529.7889,0.017084
3531.6526,0.016485
3533.5163,0.016141
3535.3799,0.015693
3537.2436,0.015099
3539.1073,0.014752
3540.9709,0.013956
3542.8346,0.013049
3544.6983,0.012689
3546.5620,0.012860
3548.4256,0.012874
3550.2893,0.012580
3552.1530,0.011987
3554.0166,0.010936
3555.8803,0.010044
3557.7440,0.009990
3559.6076,0.010166
3561.4713,0.009730
3563.3350,0.009104
3565.1986,0.008779
3567.0623,0.008578
3568.9260,0.007961
3570.7896,0.007474
3572.6533,0.007010
3574.5170,0.006601
3576.3807,0.006467
3578.2443,0.006000
3580.1080,0.005203
3581.9717,0.004934
3583.8353,0.005213
3585.6990,0.004511
3587.5627,0.003287
3589.4263,0.003034
3591.2900,0.003228
3593.1537,0.002896
3595.0173,0.002498
3596.8810,0.002236
3598.7447,0.001644
3600.6084,0.001330
3602.4720,0.001198
3604.3357,0.000539
3606.1994,-0.000132
3608.0630,-0.000651
3609.9267,-0.000668
3611.7904,-0.000578
3613.6540,-0.000779
3615.5177,-0.001081
3617.3814,-0.001422
3619.2450,-0.001903
3621.1087,-0.002328
3622.9724,-0.002854
3624.8360,-0.003603
3626.6997,-0.003933
3628.5634,-0.004105
3630.4271,-0.003993
3632.2907,-0.003734
3634.1544,-0.004159
3636.0181,-0.004611
3637.8817,-0.004974
3639.7454,-0.005339
3641.6091,-0.005726
3643.4727,-0.006101
3645.3364,-0.006397
3647.2001,-0.006511
3649.0637,-0.006744
3650.9274,-0.007369
3652.7911,-0.007389
3654.6547,-0.007388
3656.5184,-0.007786
3658.3821,-0.007924
3660.2458,-0.007973
3662.1094,-0.008092
3663.9731,-0.008036
3665.8368,-0.007952
3667.7004,-0.008500
3669.5641,-0.009301
3671.4278,-0.008919
3673.2914,-0.008873
3675.1551,-0.009636
3677.0188,-0.009335
3678.8824,-0.008828
3680.7461,-0.009191
3682.6098,-0.009339
3684.4735,-0.009438
3686.3371,-0.009950
3688.2008,-0.010444
3690.0645,-0.010324
3691.9281,-0.010170
3693.7918,-0.009700
3695.6555,-0.009397
3697.5191,-0.009625
3699.3828,-0.009638
3701.2465,-0.009607
3703.1101,-0.009505
3704.9738,-0.009332
3706.8375,-0.009834
3708.7011,-0.010590
3710.5648,-0.011041
3712.4285,-0.010764
3714.2922,-0.010067
3716.1558,-0.010059
3718.0195,-0.010424
3719.8832,-0.010072
3721.7468,-0.009618
3723.6105,-0.009827
3725.4742,-0.009993
3727.3378,-0.010087
3729.2015,-0.009941
3731.0652,-0.010229
3732.9288,-0.010466
3734.7925,-0.010435
3736.6562,-0.010695
3738.5199,-0.010447
3740.3835,-0.010109
3742.2472,-0.009845
3744.1109,-0.010169
3745.9745,-0.010226
3747.8382,-0.009859
3749.7019,-0.010283
3751.5655,-0.010491
3753.4292,-0.010243
3755.2929,-0.009935
3757.1565,-0.009894
3759.0202,-0.010139
3760.8839,-0.010361
3762.7475,-0.009896
3764.6112,-0.009739
3766.4749,-0.010134
3768.3386,-0.010171
3770.2022,-0.010062
3772.0659,-0.009572
3773.9296,-0.009577
3775.7932,-0.009971
3777.6569,-0.009992
3779.5206,-0.010107
3781.3842,-0.010153
3783.2479,-0.009741
3785.1116,-0.009847
3786.9752,-0.010281
3788.8389,-0.010208
3790.7026,-0.010160
3792.5662,-0.010328
3794.4299,-0.010314
3796.2936,-0.009989
3798.1573,-0.009929
3800.0209,-0.010553
3801.8846,-0.010407
3803.7483,-0.009261
3805.6119,-0.009461
3807.4756,-0.010251
3809.3393,-0.009964
3811.2029,-0.010013
3813.0666,-0.010356
3814.9303,-0.010296
3816.7939,-0.010282
3818.6576,-0.009672
3820.5213,-0.009805
3822.3850,-0.010136
3824.2486,-0.009528
3826.1123,-0.009522
3827.9760,-0.009682
3829.8396,-0.009877
3831.7033,-0.010231
3833.5670,-0.010366
3835.4306,-0.009797
3837.2943,-0.009792
3839.1580,-0.010353
3841.0216,-0.010660
3842.8853,-0.010711
3844.7490,-0.010299
3846.6126,-0.009401
3848.4763,-0.009481
3850.3400,-0.009932
3852.2037,-0.010386
3854.0673,-0.010521
3855.9310,-0.009422
3857.7947,-0.008958
3859.6583,-0.009554
3861.5220,-0.010357
3863.3857,-0.010612
3865.2493,-0.010077
3867.1130,-0.010037
3868.9767,-0.010237
3870.8403,-0.010102
3872.7040,-0.009396
3874.5677,-0.009848
3876.4314,-0.010017
3878.2950,-0.010014
3880.1587,-0.010217
3882.0224,-0.009887
3883.8860,-0.009688
3885.7497,-0.010113
3887.6134,-0.009926
3889.4770,-0.009485
3891.3407,-0.009525
3893.2044,-0.009640
3895.0680,-0.009486
3896.9317,-0.009694
3898.7954,-0.010361
3900.6590,-0.010199
3902.5227,-0.009099
3904.3864,-0.009015
3906.2501,-0.009253
3908.1137,-0.009303
3909.9774,-0.009252
3911.8411,-0.009485
3913.7047,-0.009679
3915.5684,-0.009774
3917.4321,-0.009898
3919.2957,-0.009875
3921.1594,-0.009826
3923.0231,-0.009843
3924.8867,-0.009629
3926.7504,-0.009568
3928.6141,-0.009419
3930.4777,-0.009467
3932.3414,-0.009744
3934.2051,-0.009823
3936.0688,-0.009536
3937.9324,-0.009463
3939.7961,-0.009369
3941.6598,-0.009403
3943.5234,-0.009445
3945.3871,-0.009267
3947.2508,-0.008985
3949.1144,-0.009193
3950.9781,-0.009105
3952.8418,-0.008854
3954.7054,-0.008970
3956.5691,-0.009193
3958.4328,-0.009408
3960.2965,-0.009510
3962.1601,-0.009287
3964.0238,-0.009050
3965.8875,-0.009242
3967.7511,-0.009509
3969.6148,-0.009616
3971.4785,-0.009616
3973.3421,-0.009288
3975.2058,-0.009140
3977.0695,-0.009163
3978.9331,-0.009536
3980.7968,-0.009575
3982.6605,-0.009275
3984.5241,-0.008946
3986.3878,-0.008902
3988.2515,-0.009146
3990.1152,-0.009538
3991.9788,-0.009544
3993.8425,-0.009063
3995.7062,-0.009027
3997.5698,-0.009025
3999.4335,-0.008845
