Wavenumber,Intensity
650.4205,0.145288
652.2841,0.144025
654.1478,0.144433
656.0115,0.143193
657.8751,0.142023
659.7388,0.142387
661.6025,0.144080
663.4661,0.143662
665.3298,0.144375
667.1935,0.146370
669.0571,0.142980
670.9208,0.140590
672.7845,0.140312
674.6481,0.139005
676.5118,0.139037
678.3755,0.138129
680.2392,0.135933
682.1028,0.135084
683.9665,0.134697
685.8302,0.133352
687.6938,0.132836
689.5575,0.131759
691.4212,0.130374
693.2848,0.130351
695.1485,0.131150
697.0122,0.131388
698.8758,0.130992
700.7395,0.129767
702.6032,0.128042
704.4669,0.127165
706.3305,0.126009
708.1942,0.123107
710.0579,0.120257
711.9215,0.118707
713.7852,0.117713
715.6489,0.116722
717.5125,0.116021
719.3762,0.115037
721.2399,0.113868
723.1035,0.112819
724.9672,0.111548
726.8309,0.110183
728.6945,0.109213
730.5582,0.108122
732.4219,0.107025
734.2856,0.106294
736.1492,0.105423
738.0129,0.105099
739.8766,0.105406
741.7402,0.105178
743.6039,0.104465
745.4676,0.103660
747.3312,0.102784
749.1949,0.101783
751.0586,0.100725
752.9222,0.099535
754.7859,0.098535
756.6496,0.097846
758.5132,0.097289
760.3769,0.096715
762.2406,0.096276
764.1043,0.095822
765.9679,0.094982
767.8316,0.094053
769.6953,0.093199
771.5589,0.092684
773.4226,0.092099
775.2863,0.091096
777.1499,0.090133
779.0136,0.089391
780.8773,0.088920
782.7409,0.088532
784.6046,0.087455
786.4683,0.086357
788.3320,0.085442
790.1956,0.084560
792.0593,0.083843
793.9230,0.083098
795.7866,0.082629
797.6503,0.082589
799.5140,0.082229
801.3776,0.081595
803.2413,0.081471
805.1050,0.081590
806.9686,0.081417
808.8323,0.081131
810.6960,0.081050
812.5596,0.080994
814.4233,0.080553
816.2870,0.079885
818.1507,0.079180
820.0143,0.078413
821.8780,0.077465
823.7417,0.076291
825.6053,0.075170
827.4690,0.074434
829.3327,0.073721
831.1963,0.072653
833.0600,0.071550
834.9237,0.070735
836.7873,0.069760
838.6510,0.068648
840.5147,0.067588
842.3784,0.066621
844.2420,0.065885
846.1057,0.065318
847.9694,0.064901
849.8330,0.064305
851.6967,0.063448
853.5604,0.062872
855.4240,0.062622
857.2877,0.062360
859.1514,0.062201
861.0150,0.062091
862.8787,0.061883
864.7424,0.061673
866.6060,0.061598
868.4697,0.061793
870.3334,0.061938
872.1971,0.061992
874.0607,0.061854
875.9244,0.061439
877.7881,0.061049
879.6517,0.060726
881.5154,0.060300
883.3791,0.059665
885.2427,0.059085
887.1064,0.058849
888.9701,0.058688
890.8337,0.058367
892.6974,0.057971
894.5611,0.057811
896.4247,0.057777
898.2884,0.057558
900.1521,0.057297
902.0158,0.057103
903.8794,0.056756
905.7431,0.056554
907.6068,0.056645
909.4704,0.056967
911.3341,0.057341
913.1978,0.057741
915.0614,0.058383
916.9251,0.059009
918.7888,0.059361
920.6524,0.059669
922.5161,0.059940
924.3798,0.060110
926.2435,0.060179
928.1071,0.060339
929.9708,0.060482
931.8345,0.060501
933.6981,0.060654
935.5618,0.061038
937.4255,0.061478
939.2891,0.062008
941.1528,0.062761
943.0165,0.063564
944.8801,0.064402
946.7438,0.065308
948.6075,0.066105
950.4711,0.066783
952.3348,0.067549
954.1985,0.068648
956.0622,0.070042
957.9258,0.071771
959.7895,0.073656
961.6532,0.075779
963.5168,0.078173
965.3805,0.080164
967.2442,0.081365
969.1078,0.082103
970.9715,0.082487
972.8352,0.082570
974.6988,0.082666
976.5625,0.083102
978.4262,0.083912
980.2899,0.084936
982.1535,0.086067
984.0172,0.087305
985.8809,0.088467
987.7445,0.089674
989.6082,0.091077
991.4719,0.092643
993.3355,0.094249
995.1992,0.095812
997.0629,0.097406
998.9265,0.099082
1000.7902,0.100759
1002.6539,0.102505
1004.5175,0.104532
1006.3812,0.107090
1008.2449,0.110263
1010.1086,0.113775
1011.9722,0.117227
1013.8359,0.120816
1015.6996,0.124387
1017.5632,0.127617
1019.4269,0.130270
1021.2906,0.132407
1023.1542,0.134137
1025.0179,0.135594
1026.8816,0.137039
1028.7452,0.138540
1030.6089,0.139871
1032.4726,0.141077
1034.3362,0.142124
1036.1999,0.142983
1038.0636,0.143541
1039.9273,0.143798
1041.7909,0.143893
1043.6546,0.144065
1045.5183,0.144303
1047.3819,0.144517
1049.2456,0.144796
1051.1093,0.145126
1052.9729,0.145411
1054.8366,0.145638
1056.7003,0.145800
1058.5639,0.145860
1060.4276,0.145724
1062.2913,0.145569
1064.1550,0.145497
1066.0186,0.145549
1067.8823,0.145643
1069.7460,0.145597
1071.6096,0.145367
1073.4733,0.144820
1075.3370,0.143846
1077.2006,0.142387
1079.0643,0.140247
1080.9280,0.137443
1082.7916,0.134117
1084.6553,0.130529
1086.5190,0.126845
1088.3826,0.123309
1090.2463,0.120043
1092.1100,0.117141
1093.9737,0.114566
1095.8373,0.112195
1097.7010,0.110104
1099.5647,0.108230
1101.4283,0.106489
1103.2920,0.104845
1105.1557,0.103445
1107.0193,0.102424
1108.8830,0.101498
1110.7467,0.100653
1112.6103,0.099909
1114.4740,0.099124
1116.3377,0.098170
1118.2014,0.096973
1120.0650,0.095671
1121.9287,0.094425
1123.7924,0.093091
1125.6560,0.091594
1127.5197,0.090088
1129.3834,0.088527
1131.2470,0.086733
1133.1107,0.084847
1134.9744,0.083040
1136.8380,0.081415
1138.7017,0.079982
1140.5654,0.078840
1142.4290,0.078013
1144.2927,0.077620
1146.1564,0.077648
1148.0201,0.077850
1149.8837,0.078156
1151.7474,0.078447
1153.6111,0.078498
1155.4747,0.078362
1157.3384,0.078303
1159.2021,0.078179
1161.0657,0.077917
1162.9294,0.077494
1164.7931,0.076799
1166.6567,0.075827
1168.5204,0.074643
1170.3841,0.073182
1172.2477,0.071225
1174.1114,0.068931
1175.9751,0.066640
1177.8388,0.064719
1179.7024,0.063338
1181.5661,0.062455
1183.4298,0.062082
1185.2934,0.062149
1187.1571,0.062546
1189.0208,0.063206
1190.8844,0.064083
1192.7481,0.065204
1194.6118,0.066477
1196.4754,0.067845
1198.3391,0.069383
1200.2028,0.071149
1202.0665,0.072978
1203.9301,0.074753
1205.7938,0.076390
1207.6575,0.077915
1209.5211,0.079435
1211.3848,0.081034
1213.2485,0.082690
1215.1121,0.084414
1216.9758,0.086225
1218.8395,0.088081
1220.7031,0.090005
1222.5668,0.091873
1224.4305,0.093523
1226.2941,0.094906
1228.1578,0.096081
1230.0215,0.097132
1231.8852,0.097962
1233.7488,0.098510
1235.6125,0.098728
1237.4762,0.098616
1239.3398,0.098308
1241.2035,0.097884
1243.0672,0.097323
1244.9308,0.096523
1246.7945,0.095504
1248.6582,0.094404
1250.5218,0.093306
1252.3855,0.092136
1254.2492,0.090982
1256.1129,0.089952
1257.9765,0.089037
1259.8402,0.088171
1261.7039,0.087346
1263.5675,0.086665
1265.4312,0.086114
1267.2949,0.085642
1269.1585,0.085161
1271.0222,0.084838
1272.8859,0.084605
1274.7495,0.084313
1276.6132,0.084210
1278.4769,0.084231
1280.3405,0.084315
1282.2042,0.084372
1284.0679,0.084362
1285.9316,0.084482
1287.7952,0.084733
1289.6589,0.084979
1291.5226,0.085275
1293.3862,0.085723
1295.2499,0.086282
1297.1136,0.086940
1298.9772,0.087395
1300.8409,0.087744
1302.7046,0.088088
1304.5682,0.088446
1306.4319,0.088803
1308.2956,0.089196
1310.1592,0.089420
1312.0229,0.089469
1313.8866,0.089369
1315.7503,0.088893
1317.6139,0.088345
1319.4776,0.087820
1321.3413,0.087068
1323.2049,0.086030
1325.0686,0.085253
1326.9323,0.084762
1328.7959,0.084472
1330.6596,0.084387
1332.5233,0.084208
1334.3869,0.083959
1336.2506,0.084194
1338.1143,0.085133
1339.9780,0.086085
1341.8416,0.085863
1343.7053,0.085273
1345.5690,0.085081
1347.4326,0.085026
1349.2963,0.085137
1351.1600,0.085298
1353.0236,0.085676
1354.8873,0.086355
1356.7510,0.086740
1358.6146,0.087221
1360.4783,0.088900
1362.3420,0.091900
1364.2056,0.093947
1366.0693,0.095027
1367.9330,0.096945
1369.7967,0.098437
1371.6603,0.099767
1373.5240,0.102865
1375.3877,0.105329
1377.2513,0.106135
1379.1150,0.107451
1380.9787,0.108560
1382.8423,0.108969
1384.7060,0.109568
1386.5697,0.111723
1388.4333,0.112708
1390.2970,0.111170
1392.1607,0.110514
1394.0244,0.111793
1395.8880,0.112378
1397.7517,0.111783
1399.6154,0.111461
1401.4790,0.109081
1403.3427,0.107269
1405.2064,0.106462
1407.0700,0.104360
1408.9337,0.102076
1410.7974,0.100324
1412.6610,0.098293
1414.5247,0.096066
1416.3884,0.094921
1418.2520,0.096085
1420.1157,0.096108
1421.9794,0.093806
1423.8431,0.093289
1425.7067,0.092771
1427.5704,0.092731
1429.4341,0.094283
1431.2977,0.094912
1433.1614,0.094794
1435.0251,0.097406
1436.8887,0.102343
1438.7524,0.102148
1440.6161,0.100800
1442.4797,0.100758
1444.3434,0.100554
1446.2071,0.101122
1448.0707,0.102087
1449.9344,0.100996
1451.7981,0.098622
1453.6618,0.096718
1455.5254,0.098199
1457.3891,0.101990
1459.2528,0.097746
1461.1164,0.093229
1462.9801,0.092152
1464.8438,0.093094
1466.7074,0.090833
1468.5711,0.087310
1470.4348,0.085881
1472.2984,0.087284
1474.1621,0.086821
1476.0258,0.085545
1477.8895,0.084875
1479.7531,0.084974
1481.6168,0.086425
1483.4805,0.087380
1485.3441,0.089004
1487.2078,0.093753
1489.0715,0.101013
1490.9351,0.105615
1492.7988,0.105654
1494.6625,0.108835
1496.5261,0.117578
1498.3898,0.123364
1500.2535,0.124354
1502.1171,0.123748
1503.9808,0.125664
1505.8445,0.139038
1507.7082,0.153799
1509.5718,0.151628
1511.4355,0.151228
1513.2992,0.152355
1515.1628,0.153975
1517.0265,0.156081
1518.8902,0.156301
1520.7538,0.160136
1522.6175,0.163568
1524.4812,0.162734
1526.3448,0.164481
1528.2085,0.164246
1530.0722,0.162806
1531.9359,0.163963
1533.7995,0.165983
1535.6632,0.161830
1537.5269,0.159628
1539.3905,0.164495
1541.2542,0.167311
1543.1179,0.163737
1544.9815,0.159738
1546.8452,0.154749
1548.7089,0.150784
1550.5725,0.146301
1552.4362,0.141148
1554.2999,0.136042
1556.1635,0.132292
1558.0272,0.134715
1559.8909,0.134486
1561.7546,0.126127
1563.6182,0.120904
1565.4819,0.117436
1567.3456,0.114897
1569.2092,0.113711
1571.0729,0.110547
1572.9366,0.106619
1574.8002,0.105891
1576.6639,0.106384
1578.5276,0.103372
1580.3912,0.100762
1582.2549,0.099632
1584.1186,0.098880
1585.9822,0.098211
1587.8459,0.097971
1589.7096,0.098058
1591.5733,0.098566
1593.4369,0.099830
1595.3006,0.101345
1597.1643,0.102924
1599.0279,0.104896
1600.8916,0.107394
1602.7553,0.110527
1604.6189,0.113975
1606.4826,0.118232
1608.3463,0.123271
1610.2099,0.127614
1612.0736,0.131032
1613.9373,0.135305
1615.8010,0.144361
1617.6646,0.152318
1619.5283,0.153008
1621.3920,0.156252
1623.2556,0.163469
1625.1193,0.167886
1626.9830,0.170702
1628.8466,0.172989
1630.7103,0.172215
1632.5740,0.171646
1634.4376,0.175204
1636.3013,0.178522
1638.1650,0.174560
1640.0286,0.170127
1641.8923,0.166280
1643.7560,0.163118
1645.6197,0.161763
1647.4833,0.158388
1649.3470,0.152520
1651.2107,0.149457
1653.0743,0.149565
1654.9380,0.143056
1656.8017,0.136001
1658.6653,0.130053
1660.5290,0.124785
1662.3927,0.119574
1664.2563,0.113795
1666.1200,0.108434
1667.9837,0.104217
1669.8474,0.099857
1671.7110,0.094898
1673.5747,0.090599
1675.4384,0.086559
1677.3020,0.081474
1679.1657,0.076807
1681.0294,0.072290
1682.8930,0.068645
1684.7567,0.064108
1686.6204,0.059181
1688.4840,0.054751
1690.3477,0.050039
1692.2114,0.045249
1694.0750,0.040765
1695.9387,0.035277
1697.8024,0.030753
1699.6661,0.026835
1701.5297,0.022851
1703.3934,0.020242
1705.2571,0.018056
1707.1207,0.016011
1708.9844,0.014180
1710.8481,0.012561
1712.7117,0.011449
1714.5754,0.010403
1716.4391,0.009433
1718.3027,0.008438
1720.1664,0.008139
1722.0301,0.007750
1723.8937,0.007363
1725.7574,0.007048
1727.6211,0.006854
1729.4848,0.006574
1731.3484,0.006559
1733.2121,0.006171
1735.0758,0.006150
1736.9394,0.006289
1738.8031,0.006265
1740.6668,0.006256
1742.5304,0.006101
1744.3941,0.005846
1746.2578,0.005633
1748.1214,0.005109
1749.9851,0.004449
1751.8488,0.003825
1753.7125,0.003446
1755.5761,0.002851
1757.4398,0.002436
1759.3035,0.002147
1761.1671,0.001689
1763.0308,0.001387
1764.8945,0.001425
1766.7581,0.001218
1768.6218,0.001213
1770.4855,0.001157
1772.3491,0.000858
1774.2128,0.000638
1776.0765,0.000657
1777.9401,0.000859
1779.8038,0.000857
1781.6675,0.000799
1783.5312,0.000793
1785.3948,0.000762
1787.2585,0.000813
1789.1222,0.000708
1790.9858,0.000507
1792.8495,0.000467
1794.7132,0.000718
1796.5768,0.000833
1798.4405,0.000838
1800.3042,0.000609
1802.1678,0.000606
1804.0315,0.000549
1805.8952,0.000478
1807.7589,0.000551
1809.6225,0.000615
1811.4862,0.000385
1813.3499,0.000240
1815.2135,0.000256
1817.0772,0.000305
1818.9409,0.000413
1820.8045,0.000521
1822.6682,0.000482
1824.5319,0.000197
1826.3955,0.000171
1828.2592,0.000666
1830.1229,0.000802
1831.9865,0.000509
1833.8502,0.000146
1835.7139,0.000060
1837.5776,0.000076
1839.4412,0.000187
1841.3049,0.000257
1843.1686,0.000259
1845.0322,0.000185
1846.8959,0.000230
1848.7596,0.000500
1850.6232,0.000837
1852.4869,0.000524
1854.3506,0.000114
1856.2142,0.000129
1858.0779,0.000106
1859.9416,0.000039
1861.8052,0.000373
1863.6689,0.000447
1865.5326,0.000314
1867.3963,0.000406
1869.2599,0.000468
1871.1236,0.000879
1872.9873,0.001009
1874.8509,0.000622
1876.7146,0.000470
1878.5783,0.000412
1880.4419,0.000305
1882.3056,0.000459
1884.1693,0.000548
1886.0329,0.000579
1887.8966,0.000937
1889.7603,0.000732
1891.6240,0.000416
1893.4876,0.000478
1895.3513,0.000474
1897.2150,0.000382
1899.0786,0.000360
1900.9423,0.000380
1902.8060,0.000426
1904.6696,0.000654
1906.5333,0.001060
1908.3970,0.001139
1910.2606,0.000722
1912.1243,0.000335
1913.9880,0.000819
1915.8516,0.001236
1917.7153,0.001037
1919.5790,0.001259
1921.4427,0.001308
1923.3063,0.001006
1925.1700,0.000801
1927.0337,0.000703
1928.8973,0.001208
1930.7610,0.001613
1932.6247,0.001287
1934.4883,0.000879
1936.3520,0.000640
1938.2157,0.001045
1940.0793,0.001388
1941.9430,0.001485
1943.8067,0.001328
1945.6704,0.000906
1947.5340,0.001252
1949.3977,0.001340
1951.2614,0.000862
1953.1250,0.000948
1954.9887,0.001320
1956.8524,0.000752
1958.7160,-0.000037
1960.5797,0.000661
1962.4434,0.001398
1964.3070,0.001128
1966.1707,0.000233
1968.0344,0.000134
1969.8980,0.001400
1971.7617,0.001536
1973.6254,0.001261
1975.4891,0.000428
1977.3527,0.000927
1979.2164,0.002721
1981.0801,0.002408
1982.9437,0.002310
1984.8074,0.002603
1986.6711,0.002226
1988.5347,0.002220
1990.3984,0.002479
1992.2621,0.002763
1994.1257,0.003012
1995.9894,0.002528
1997.8531,0.001430
1999.7167,0.001599
2001.5804,0.001960
2003.4441,0.000727
2005.3078,0.000770
2007.1714,0.001853
2009.0351,0.002810
2010.8988,0.001757
2012.7624,-0.000487
2014.6261,0.000345
2016.4898,0.002178
2018.3534,0.002199
2020.2171,0.001760
2022.0808,0.001308
2023.9444,0.001349
2025.8081,0.001648
2027.6718,0.001381
2029.5355,0.000945
2031.3991,0.000938
2033.2628,0.002481
2035.1265,0.004479
2036.9901,0.004697
2038.8538,0.003838
2040.7175,0.003614
2042.5811,0.003949
2044.4448,0.004809
2046.3085,0.005149
2048.1721,0.005838
2050.0358,0.006525
2051.8995,0.005798
2053.7631,0.005437
2055.6268,0.005375
2057.4905,0.005167
2059.3542,0.004778
2061.2178,0.004382
2063.0815,0.004971
2064.9452,0.005370
2066.8088,0.004530
2068.6725,0.004992
2070.5362,0.006364
2072.3998,0.006914
2074.2635,0.006289
2076.1272,0.005868
2077.9908,0.006429
2079.8545,0.006545
2081.7182,0.005603
2083.5819,0.005105
2085.4455,0.005331
2087.3092,0.005121
2089.1729,0.004939
2091.0365,0.005053
2092.9002,0.005305
2094.7639,0.005270
2096.6275,0.005282
2098.4912,0.005298
2100.3549,0.004836
2102.2185,0.004981
2104.0822,0.005519
2105.9459,0.005163
2107.8095,0.005285
2109.6732,0.005946
2111.5369,0.005576
2113.4006,0.004557
2115.2642,0.004585
2117.1279,0.005091
2118.9916,0.004641
2120.8552,0.004285
2122.7189,0.004581
2124.5826,0.004752
2126.4462,0.005031
2128.3099,0.004914
2130.1736,0.004160
2132.0372,0.003567
2133.9009,0.003538
2135.7646,0.003909
2137.6282,0.004322
2139.4919,0.004118
2141.3556,0.003972
2143.2193,0.004029
2145.0829,0.003934
2146.9466,0.004705
2148.8103,0.005524
2150.6739,0.004673
2152.5376,0.002592
2154.4013,0.002260
2156.2649,0.004551
2158.1286,0.006776
2159.9923,0.008049
2161.8559,0.007338
2163.7196,0.006940
2165.5833,0.007823
2167.4470,0.008188
2169.3106,0.007501
2171.1743,0.006929
2173.0380,0.006342
2174.9016,0.005800
2176.7653,0.006095
2178.6290,0.006497
2180.4926,0.007453
2182.3563,0.008107
2184.2200,0.008013
2186.0836,0.007474
2187.9473,0.007485
2189.8110,0.008250
2191.6746,0.007488
2193.5383,0.006592
2195.4020,0.007396
2197.2657,0.007975
2199.1293,0.007126
2200.9930,0.006911
2202.8567,0.007648
2204.7203,0.007271
2206.5840,0.006223
2208.4477,0.006009
2210.3113,0.006862
2212.1750,0.007495
2214.0387,0.007252
2215.9023,0.007266
2217.7660,0.007602
2219.6297,0.007312
2221.4934,0.006905
2223.3570,0.007114
2225.2207,0.007512
2227.0844,0.008016
2228.9480,0.008291
2230.8117,0.007755
2232.6754,0.007213
2234.5390,0.007187
2236.4027,0.007097
2238.2664,0.006879
2240.1300,0.007029
2241.9937,0.007123
2243.8574,0.007450
2245.7210,0.008508
2247.5847,0.008335
2249.4484,0.007433
2251.3121,0.007541
2253.1757,0.007687
2255.0394,0.007884
2256.9031,0.008069
2258.7667,0.007937
2260.6304,0.007651
2262.4941,0.007148
2264.3577,0.007310
2266.2214,0.007704
2268.0851,0.007729
2269.9487,0.007918
2271.8124,0.008128
2273.6761,0.008192
2275.5397,0.007858
2277.4034,0.007642
2279.2671,0.007986
2281.1308,0.008681
2282.9944,0.008960
2284.8581,0.008637
2286.7218,0.008442
2288.5854,0.008351
2290.4491,0.008176
2292.3128,0.007850
2294.1764,0.007707
2296.0401,0.007431
2297.9038,0.007054
2299.7674,0.007235
2301.6311,0.007442
2303.4948,0.007292
2305.3585,0.007452
2307.2221,0.007829
2309.0858,0.007637
2310.9495,0.007264
2312.8131,0.007357
2314.6768,0.007703
2316.5405,0.007994
2318.4041,0.007986
2320.2678,0.008214
2322.1315,0.008920
2323.9951,0.009019
2325.8588,0.008109
2327.7225,0.007408
2329.5861,0.007494
2331.4498,0.007317
2333.3135,0.006950
2335.1772,0.006935
2337.0408,0.007082
2338.9045,0.007258
2340.7682,0.007466
2342.6318,0.007602
2344.4955,0.007592
2346.3592,0.007212
2348.2228,0.006532
2350.0865,0.006212
2351.9502,0.006473
2353.8138,0.006691
2355.6775,0.006538
2357.5412,0.007023
2359.4049,0.007647
2361.2685,0.007734
2363.1322,0.007836
2364.9959,0.007880
2366.8595,0.007857
2368.7232,0.008067
2370.5869,0.008053
2372.4505,0.007784
2374.3142,0.007487
2376.1779,0.007364
2378.0415,0.007453
2379.9052,0.007335
2381.7689,0.006848
2383.6325,0.006452
2385.4962,0.006481
2387.3599,0.006659
2389.2236,0.006675
2391.0872,0.006783
2392.9509,0.007108
2394.8146,0.007301
2396.6782,0.007335
2398.5419,0.007286
2400.4056,0.007172
2402.2692,0.007042
2404.1329,0.006885
2405.9966,0.006933
2407.8602,0.007321
2409.7239,0.007386
2411.5876,0.007136
2413.4512,0.007442
2415.3149,0.007786
2417.1786,0.007851
2419.0423,0.007960
2420.9059,0.007700
2422.7696,0.007462
2424.6333,0.007621
2426.4969,0.007805
2428.3606,0.007983
2430.2243,0.008031
2432.0879,0.007961
2433.9516,0.008029
2435.8153,0.008136
2437.6789,0.008340
2439.5426,0.008335
2441.4063,0.008235
2443.2700,0.008294
2445.1336,0.008382
2446.9973,0.008674
2448.8610,0.008766
2450.7246,0.008631
2452.5883,0.008583
2454.4520,0.008566
2456.3156,0.008735
2458.1793,0.008943
2460.0430,0.008930
2461.9066,0.008935
2463.7703,0.008933
2465.6340,0.008958
2467.4976,0.008913
2469.3613,0.009148
2471.2250,0.009146
2473.0887,0.008828
2474.9523,0.008839
2476.8160,0.008863
2478.6797,0.009003
2480.5433,0.009251
2482.4070,0.009285
2484.2707,0.009370
2486.1343,0.009400
2487.9980,0.009395
2489.8617,0.009573
2491.7253,0.009572
2493.5890,0.009641
2495.4527,0.009558
2497.3164,0.009626
2499.1800,0.009857
2501.0437,0.009826
2502.9074,0.009861
2504.7710,0.009889
2506.6347,0.009897
2508.4984,0.010047
2510.3620,0.010152
2512.2257,0.010092
2514.0894,0.009948
2515.9530,0.010053
2517.8167,0.010382
2519.6804,0.010523
2521.5440,0.010352
2523.4077,0.010475
2525.2714,0.010769
2527.1351,0.010629
2528.9987,0.010508
2530.8624,0.010941
2532.7261,0.010771
2534.5897,0.010297
2536.4534,0.010662
2538.3171,0.010878
2540.1807,0.010942
2542.0444,0.011232
2543.9081,0.011252
2545.7717,0.011111
2547.6354,0.011057
2549.4991,0.010943
2551.3627,0.010898
2553.2264,0.011166
2555.0901,0.011283
2556.9538,0.011270
2558.8174,0.011294
2560.6811,0.011383
2562.5448,0.011400
2564.4084,0.011386
2566.2721,0.011576
2568.1358,0.011886
2569.9994,0.012039
2571.8631,0.012214
2573.7268,0.012187
2575.5904,0.012047
2577.4541,0.012150
2579.3178,0.012284
2581.1815,0.012227
2583.0451,0.012002
2584.9088,0.011897
2586.7725,0.012354
2588.6361,0.012585
2590.4998,0.012519
2592.3635,0.012860
2594.2271,0.013090
2596.0908,0.013286
2597.9545,0.013504
2599.8181,0.013511
2601.6818,0.013265
2603.5455,0.013066
2605.4091,0.013262
2607.2728,0.013442
2609.1365,0.013420
2611.0002,0.013242
2612.8638,0.013438
2614.7275,0.013808
2616.5912,0.013931
2618.4548,0.014105
2620.3185,0.014370
2622.1822,0.014455
2624.0458,0.014473
2625.9095,0.014592
2627.7732,0.014746
2629.6368,0.014808
2631.5005,0.014776
2633.3642,0.014962
2635.2279,0.015156
2637.0915,0.015018
2638.9552,0.015060
2640.8189,0.015323
2642.6825,0.015575
2644.5462,0.015736
2646.4099,0.015672
2648.2735,0.015593
2650.1372,0.015721
2652.0009,0.015886
2653.8645,0.015866
2655.7282,0.015838
2657.5919,0.015890
2659.4555,0.015904
2661.3192,0.015816
2663.1829,0.015848
2665.0466,0.016162
2666.9102,0.016191
2668.7739,0.016127
2670.6376,0.016250
2672.5012,0.016359
2674.3649,0.016415
2676.2286,0.016424
2678.0922,0.016426
2679.9559,0.016605
2681.8196,0.016661
2683.6832,0.016792
2685.5469,0.016984
2687.4106,0.016901
2689.2742,0.016903
2691.1379,0.017020
2693.0016,0.017248
2694.8653,0.017521
2696.7289,0.017624
2698.5926,0.017731
2700.4563,0.017760
2702.3199,0.017857
2704.1836,0.017940
2706.0473,0.018004
2707.9109,0.018201
2709.7746,0.018449
2711.6383,0.018606
2713.5019,0.018593
2715.3656,0.018649
2717.2293,0.018892
2719.0930,0.018967
2720.9566,0.019114
2722.8203,0.019503
2724.6840,0.019700
2726.5476,0.019810
2728.4113,0.019958
2730.2750,0.020071
2732.1386,0.020100
2734.0023,0.020277
2735.8660,0.020493
2737.7296,0.020677
2739.5933,0.020821
2741.4570,0.020982
2743.3206,0.021117
2745.1843,0.021438
2747.0480,0.021764
2748.9117,0.021798
2750.7753,0.021813
2752.6390,0.022022
2754.5027,0.022185
2756.3663,0.022310
2758.2300,0.022380
2760.0937,0.022532
2761.9573,0.022919
2763.8210,0.023253
2765.6847,0.023303
2767.5483,0.023290
2769.4120,0.023301
2771.2757,0.023485
2773.1394,0.023888
2775.0030,0.024184
2776.8667,0.024249
2778.7304,0.024404
2780.5940,0.024824
2782.4577,0.025106
2784.3214,0.025230
2786.1850,0.025476
2788.0487,0.025757
2789.9124,0.025801
2791.7760,0.025801
2793.6397,0.026151
2795.5034,0.026717
2797.3670,0.027051
2799.2307,0.027169
2801.0944,0.027337
2802.9581,0.027556
2804.8217,0.027798
2806.6854,0.028064
2808.5491,0.028418
2810.4127,0.028822
2812.2764,0.029098
2814.1401,0.029347
2816.0037,0.029392
2817.8674,0.029632
2819.7311,0.030006
2821.5947,0.030319
2823.4584,0.030625
2825.3221,0.030894
2827.1857,0.031365
2829.0494,0.031806
2830.9131,0.032207
2832.7768,0.032810
2834.6404,0.033506
2836.5041,0.034203
2838.3678,0.034884
2840.2314,0.035545
2842.0951,0.036388
2843.9588,0.037632
2845.8224,0.038970
2847.6861,0.040121
2849.5498,0.040954
2851.4134,0.041336
2853.2771,0.041078
2855.1408,0.040819
2857.0045,0.040933
2858.8681,0.041002
2860.7318,0.040967
2862.5955,0.041193
2864.4591,0.041418
2866.3228,0.041822
2868.1865,0.042371
2870.0501,0.042985
2871.9138,0.043061
2873.7775,0.042912
2875.6411,0.042776
2877.5048,0.042730
2879.3685,0.042667
2881.2321,0.042539
2883.0958,0.042706
2884.9595,0.042944
2886.8232,0.042906
2888.6868,0.043175
2890.5505,0.043617
2892.4142,0.043941
2894.2778,0.044329
2896.1415,0.044867
2898.0052,0.045466
2899.8688,0.046136
2901.7325,0.046700
2903.5962,0.047219
2905.4598,0.047902
2907.3235,0.048747
2909.1872,0.049699
2911.0509,0.050737
2912.9145,0.051857
2914.7782,0.052735
2916.6419,0.053434
2918.5055,0.054203
2920.3692,0.054510
2922.2329,0.054513
2924.0965,0.054293
2925.9602,0.054102
2927.8239,0.053720
2929.6875,0.053193
2931.5512,0.052538
2933.4149,0.051988
2935.2785,0.051409
2937.1422,0.050872
2939.0059,0.050350
2940.8696,0.049831
2942.7332,0.049159
2944.5969,0.048573
2946.4606,0.048312
2948.3242,0.048392
2950.1879,0.048416
2952.0516,0.048511
2953.9152,0.048569
2955.7789,0.048769
2957.6426,0.048849
2959.5062,0.048711
2961.3699,0.048259
2963.2336,0.047570
2965.0972,0.046888
2966.9609,0.046152
2968.8246,0.045196
2970.6883,0.044488
2972.5519,0.043733
2974.4156,0.043052
2976.2793,0.042442
2978.1429,0.041734
2980.0066,0.041025
2981.8703,0.040425
2983.7339,0.040250
2985.5976,0.039875
2987.4613,0.039380
2989.3249,0.039010
2991.1886,0.038546
2993.0523,0.038255
2994.9160,0.038203
2996.7796,0.038377
2998.6433,0.038280
3000.5070,0.038181
3002.3706,0.038507
3004.2343,0.038907
3006.0980,0.038864
3007.9616,0.038999
3009.8253,0.039425
3011.6890,0.039724
3013.5526,0.039895
3015.4163,0.040334
3017.2800,0.040492
3019.1436,0.040603
3021.0073,0.040824
3022.8710,0.041401
3024.7347,0.042082
3026.5983,0.042301
3028.4620,0.042767
3030.3257,0.043704
3032.1893,0.044236
3034.0530,0.044291
3035.9167,0.043942
3037.7803,0.044313
3039.6440,0.045100
3041.5077,0.045774
3043.3713,0.045756
3045.2350,0.045743
3047.0987,0.045990
3048.9624,0.046548
3050.8260,0.047070
3052.6897,0.047045
3054.5534,0.047516
3056.4170,0.048138
3058.2807,0.048125
3060.1444,0.048317
3062.0080,0.048691
3063.8717,0.048925
3065.7354,0.049101
3067.5990,0.049006
3069.4627,0.049134
3071.3264,0.049679
3073.1900,0.049801
3075.0537,0.049861
3076.9174,0.049779
3078.7811,0.049607
3080.6447,0.049795
3082.5084,0.050076
3084.3721,0.049725
3086.2357,0.049462
3088.0994,0.049666
3089.9631,0.049566
3091.8267,0.049271
3093.6904,0.049211
3095.5541,0.049576
3097.4177,0.050048
3099.2814,0.050024
3101.1451,0.049784
3103.0087,0.049612
3104.8724,0.049675
3106.7361,0.049727
3108.5998,0.050286
3110.4634,0.050648
3112.3271,0.050584
3114.1908,0.050440
3116.0544,0.050811
3117.9181,0.051027
3119.7818,0.050856
3121.6454,0.050741
3123.5091,0.051235
3125.3728,0.051835
3127.2364,0.052382
3129.1001,0.052480
3130.9638,0.052720
3132.8275,0.053683
3134.6911,0.054182
3136.5548,0.054087
3138.4185,0.054102
3140.2821,0.054585
3142.1458,0.055327
3144.0095,0.055750
3145.8731,0.056089
3147.7368,0.056494
3149.6005,0.057213
3151.4641,0.057765
3153.3278,0.058069
3155.1915,0.057980
3157.0551,0.057920
3158.9188,0.058526
3160.7825,0.059350
3162.6462,0.059800
3164.5098,0.060333
3166.3735,0.060941
3168.2372,0.061590
3170.1008,0.061888
3171.9645,0.062552
3173.8282,0.063072
3175.6918,0.063212
3177.5555,0.063274
3179.4192,0.064039
3181.2828,0.064669
3183.1465,0.065031
3185.0102,0.065110
3186.8739,0.065428
3188.7375,0.065875
3190.6012,0.066498
3192.4649,0.066895
3194.3285,0.067009
3196.1922,0.067152
3198.0559,0.067688
3199.9195,0.067702
3201.7832,0.067899
3203.6469,0.068137
3205.5105,0.068475
3207.3742,0.068861
3209.2379,0.069090
3211.1015,0.068841
3212.9652,0.069052
3214.8289,0.069366
3216.6926,0.069296
3218.5562,0.069301
3220.4199,0.070119
3222.2836,0.070771
3224.1472,0.070637
3226.0109,0.070702
3227.8746,0.071656
3229.7382,0.072174
3231.6019,0.072193
3233.4656,0.072031
3235.3292,0.072212
3237.1929,0.072777
3239.0566,0.073230
3240.9202,0.073256
3242.7839,0.073381
3244.6476,0.073822
3246.5113,0.074712
3248.3749,0.074928
3250.2386,0.075124
3252.1023,0.075667
3253.9659,0.076339
3255.8296,0.076663
3257.6933,0.076787
3259.5569,0.076841
3261.4206,0.077108
3263.2843,0.077606
3265.1479,0.078009
3267.0116,0.078130
3268.8753,0.078264
3270.7390,0.077969
3272.6026,0.077951
3274.4663,0.077682
3276.3300,0.077485
3278.1936,0.077547
3280.0573,0.077615
3281.9210,0.077197
3283.7846,0.076998
3285.6483,0.076561
3287.5120,0.076222
3289.3756,0.076233
3291.2393,0.076179
3293.1030,0.075677
3294.9666,0.075175
3296.8303,0.074312
3298.6940,0.073408
3300.5577,0.072573
3302.4213,0.072371
3304.2850,0.072051
3306.1487,0.071557
3308.0123,0.071256
3309.8760,0.070707
3311.7397,0.069354
3313.6033,0.068530
3315.4670,0.068449
3317.3307,0.068350
3319.1943,0.067934
3321.0580,0.067813
3322.9217,0.067209
3324.7854,0.066782
3326.6490,0.066413
3328.5127,0.065658
3330.3764,0.065012
3332.2400,0.064733
3334.1037,0.064896
3335.9674,0.064700
3337.8310,0.063940
3339.6947,0.063367
3341.5584,0.063167
3343.4220,0.062835
3345.2857,0.062065
3347.1494,0.061900
3349.0130,0.061656
3350.8767,0.061076
3352.7404,0.060237
3354.6041,0.059879
3356.4677,0.060167
3358.3314,0.060332
3360.1951,0.059888
3362.0587,0.059403
3363.9224,0.058924
3365.7861,0.058815
3367.6497,0.058272
3369.5134,0.057650
3371.3771,0.057091
3373.2407,0.056745
3375.1044,0.056211
3376.9681,0.055939
3378.8317,0.055829
3380.6954,0.055943
3382.5591,0.055611
3384.4228,0.054586
3386.2864,0.054152
3388.1501,0.053709
3390.0138,0.053333
3391.8774,0.053593
3393.7411,0.053270
3395.6048,0.052851
3397.4684,0.052752
3399.3321,0.052465
3401.1958,0.051831
3403.0594,0.051637
3404.9231,0.051405
3406.7868,0.051037
3408.6505,0.050849
3410.5141,0.050447
3412.3778,0.049777
3414.2415,0.049477
3416.1051,0.049281
3417.9688,0.048793
3419.8325,0.048276
3421.6961,0.048045
3423.5598,0.047641
3425.4235,0.047548
3427.2871,0.047202
3429.1508,0.046593
3431.0145,0.046246
3432.8781,0.046117
3434.7418,0.045669
3436.6055,0.044970
3438.4692,0.044560
3440.3328,0.043955
3442.1965,0.043208
3444.0602,0.043340
3445.9238,0.043048
3447.7875,0.042229
3449.6512,0.041931
3451.5148,0.041834
3453.3785,0.041706
3455.2422,0.041274
3457.1058,0.041011
3458.9695,0.041050
3460.8332,0.040616
3462.6969,0.039833
3464.5605,0.039212
3466.4242,0.038600
3468.2879,0.038018
3470.1515,0.037656
3472.0152,0.037134
3473.8789,0.036760
3475.7425,0.036457
3477.6062,0.036240
3479.4699,0.035861
3481.3335,0.035069
3483.1972,0.034158
3485.0609,0.033591
3486.9245,0.033884
3488.7882,0.034437
3490.6519,0.034505
3492.5156,0.033346
3494.3792,0.031511
3496.2429,0.030446
3498.1066,0.030612
3499.9702,0.030972
3501.8339,0.030809
3503.6976,0.030785
3505.5612,0.030260
3507.4249,0.029353
3509.2886,0.028869
3511.1522,0.028465
3513.0159,0.028188
3514.8796,0.027866
3516.7432,0.027091
3518.6069,0.026163
3520.4706,0.025678
3522.3343,0.025397
3524.1979,0.025011
3526.0616,0.024856
3527.9253,0.024282
3529.7889,0.023817
3531.6526,0.023915
3533.5163,0.022841
3535.3799,0.021635
3537.2436,0.022020
3539.1073,0.022134
3540.9709,0.021277
3542.8346,0.020326
3544.6983,0.019524
3546.5620,0.018955
3548.4256,0.018690
3550.2893,0.018436
3552.1530,0.017900
3554.0166,0.017172
3555.8803,0.016740
3557.7440,0.016269
3559.6076,0.015367
3561.4713,0.015104
3563.3350,0.014996
3565.1986,0.014619
3567.0623,0.014032
3568.9260,0.013675
3570.7896,0.013535
3572.6533,0.012614
3574.5170,0.011758
3576.3807,0.011597
3578.2443,0.011330
3580.1080,0.011355
3581.9717,0.011218
3583.8353,0.010340
3585.6990,0.008789
3587.5627,0.007847
3589.4263,0.008046
3591.2900,0.007720
3593.1537,0.007006
3595.0173,0.006851
3596.8810,0.006952
3598.7447,0.006427
3600.6084,0.005704
3602.4720,0.005652
3604.3357,0.005453
3606.1994,0.005308
3608.0630,0.004889
3609.9267,0.004049
3611.7904,0.003577
3613.6540,0.003289
3615.5177,0.003043
3617.3814,0.002356
3619.2450,0.001807
3621.1087,0.001463
3622.9724,0.001050
3624.8360,0.000906
3626.6997,0.000816
3628.5634,0.000311
3630.4271,0.000021
3632.2907,0.000209
3634.1544,-0.000143
3636.0181,-0.000749
3637.8817,-0.000971
3639.7454,-0.001047
3641.6091,-0.001281
3643.4727,-0.001367
3645.3364,-0.001612
3647.2001,-0.002593
3649.0637,-0.003905
3650.9274,-0.004044
3652.7911,-0.003264
3654.6547,-0.003124
3656.5184,-0.003894
3658.3821,-0.004228
3660.2458,-0.003742
3662.1094,-0.003696
3663.9731,-0.004018
3665.8368,-0.003956
3667.7004,-0.004174
3669.5641,-0.005265
3671.4278,-0.005967
3673.2914,-0.005732
3675.1551,-0.006289
3677.0188,-0.006698
3678.8824,-0.005953
3680.7461,-0.005801
3682.6098,-0.005853
3684.4735,-0.005533
3686.3371,-0.005486
3688.2008,-0.006126
3690.0645,-0.006849
3691.9281,-0.006777
3693.7918,-0.006551
3695.6555,-0.006413
3697.5191,-0.006273
3699.3828,-0.006209
3701.2465,-0.006503
3703.1101,-0.006503
3704.9738,-0.006201
3706.8375,-0.006322
3708.7011,-0.006417
3710.5648,-0.006871
3712.4285,-0.007484
3714.2922,-0.007004
3716.1558,-0.006431
3718.0195,-0.006266
3719.8832,-0.006185
3721.7468,-0.006671
3723.6105,-0.007389
3725.4742,-0.007496
3727.3378,-0.007052
3729.2015,-0.006646
3731.0652,-0.006626
3732.9288,-0.006529
3734.7925,-0.006717
3736.6562,-0.007342
3738.5199,-0.006932
3740.3835,-0.006558
3742.2472,-0.007243
3744.1109,-0.007976
3745.9745,-0.007514
3747.8382,-0.007021
3749.7019,-0.007329
3751.5655,-0.007183
3753.4292,-0.006775
3755.2929,-0.006539
3757.1565,-0.006251
3759.0202,-0.006088
3760.8839,-0.006145
3762.7475,-0.005998
3764.6112,-0.005867
3766.4749,-0.005952
3768.3386,-0.005783
3770.2022,-0.005678
3772.0659,-0.005553
3773.9296,-0.005529
3775.7932,-0.005978
3777.6569,-0.006245
3779.5206,-0.006005
3781.3842,-0.005761
3783.2479,-0.005820
3785.1116,-0.006042
3786.9752,-0.005779
3788.8389,-0.005365
3790.7026,-0.005648
3792.5662,-0.005989
3794.4299,-0.005869
3796.2936,-0.006038
3798.1573,-0.006275
3800.0209,-0.006251
3801.8846,-0.006451
3803.7483,-0.006270
3805.6119,-0.006190
3807.4756,-0.006417
3809.3393,-0.006324
3811.2029,-0.006137
3813.0666,-0.005848
3814.9303,-0.005901
3816.7939,-0.006376
3818.6576,-0.006309
3820.5213,-0.006360
3822.3850,-0.006904
3824.2486,-0.006677
3826.1123,-0.005952
3827.9760,-0.005342
3829.8396,-0.005320
3831.7033,-0.005967
3833.5670,-0.006024
3835.4306,-0.005713
3837.2943,-0.006087
3839.1580,-0.006220
3841.0216,-0.006188
3842.8853,-0.006399
3844.7490,-0.006336
3846.6126,-0.005955
3848.4763,-0.005566
3850.3400,-0.005378
3852.2037,-0.005657
3854.0673,-0.006709
3855.9310,-0.006682
3857.7947,-0.005733
3859.6583,-0.005683
3861.5220,-0.006021
3863.3857,-0.006096
3865.2493,-0.006023
3867.1130,-0.005895
3868.9767,-0.005834
3870.8403,-0.005872
3872.7040,-0.005570
3874.5677,-0.005829
3876.4314,-0.005737
3878.2950,-0.005299
3880.1587,-0.005578
3882.0224,-0.005633
3883.8860,-0.005359
3885.7497,-0.005558
3887.6134,-0.005514
3889.4770,-0.005579
3891.3407,-0.006043
3893.2044,-0.006046
3895.0680,-0.005627
3896.9317,-0.005426
3898.7954,-0.005468
3900.6590,-0.005311
3902.5227,-0.005166
3904.3864,-0.005499
3906.2501,-0.005521
3908.1137,-0.005373
3909.9774,-0.005299
3911.8411,-0.005275
3913.7047,-0.005285
3915.5684,-0.005526
3917.4321,-0.005490
3919.2957,-0.005148
3921.1594,-0.005277
3923.0231,-0.005595
3924.8867,-0.005454
3926.7504,-0.005232
3928.6141,-0.005060
3930.4777,-0.005049
3932.3414,-0.004970
3934.2051,-0.005035
3936.0688,-0.005100
3937.9324,-0.005111
3939.7961,-0.005174
3941.6598,-0.005254
3943.5234,-0.005076
3945.3871,-0.004909
3947.2508,-0.005053
3949.1144,-0.005375
3950.9781,-0.005138
3952.8418,-0.004974
3954.7054,-0.005120
3956.5691,-0.005055
3958.4328,-0.005323
3960.2965,-0.005561
3962.1601,-0.005215
3964.0238,-0.004920
3965.8875,-0.005105
3967.7511,-0.005224
3969.6148,-0.005269
3971.4785,-0.005299
3973.3421,-0.005046
3975.2058,-0.004987
3977.0695,-0.004949
3978.9331,-0.004832
3980.7968,-0.004906
3982.6605,-0.004956
3984.5241,-0.004780
3986.3878,-0.004792
3988.2515,-0.005224
3990.1152,-0.005247
3991.9788,-0.004927
3993.8425,-0.004992
3995.7062,-0.005045
3997.5698,-0.005091
3999.4335,-0.005047
