Wavenumber,Intensity
650.4205,0.147139
652.2841,0.146442
654.1478,0.142592
656.0115,0.143356
657.8751,0.144460
659.7388,0.143284
661.6025,0.142555
663.4661,0.139585
665.3298,0.136047
667.1935,0.138297
669.0571,0.143019
670.9208,0.136297
672.7845,0.132348
674.6481,0.131559
676.5118,0.131059
678.3755,0.131031
680.2392,0.131835
682.1028,0.129488
683.9665,0.126666
685.8302,0.126779
687.6938,0.126598
689.5575,0.124889
691.4212,0.124096
693.2848,0.124190
695.1485,0.124466
697.0122,0.123916
698.8758,0.122350
700.7395,0.120837
702.6032,0.119999
704.4669,0.119305
706.3305,0.118340
708.1942,0.116038
710.0579,0.113393
711.9215,0.112021
713.7852,0.111274
715.6489,0.110720
717.5125,0.109752
719.3762,0.108118
721.2399,0.106723
723.1035,0.106353
724.9672,0.106654
726.8309,0.105465
728.6945,0.103573
730.5582,0.102940
732.4219,0.102521
734.2856,0.101909
736.1492,0.101474
738.0129,0.100789
739.8766,0.100856
741.7402,0.101298
743.6039,0.100496
745.4676,0.099425
747.3312,0.098388
749.1949,0.096649
751.0586,0.095548
752.9222,0.095098
754.7859,0.094093
756.6496,0.093248
758.5132,0.093156
760.3769,0.092653
762.2406,0.091854
764.1043,0.091623
765.9679,0.091377
767.8316,0.090568
769.6953,0.089321
771.5589,0.088742
773.4226,0.088772
775.2863,0.088452
777.1499,0.087796
779.0136,0.086980
780.8773,0.086226
782.7409,0.085402
784.6046,0.084579
786.4683,0.083670
788.3320,0.082581
790.1956,0.081758
792.0593,0.081007
793.9230,0.080390
795.7866,0.079859
797.6503,0.079105
799.5140,0.078467
801.3776,0.078376
803.2413,0.078099
805.1050,0.077367
806.9686,0.076711
808.8323,0.076230
810.6960,0.075634
812.5596,0.075032
814.4233,0.074397
816.2870,0.073590
818.1507,0.073069
820.0143,0.072752
821.8780,0.072018
823.7417,0.071181
825.6053,0.070317
827.4690,0.069491
829.3327,0.068898
831.1963,0.068387
833.0600,0.067755
834.9237,0.067162
836.7873,0.066544
838.6510,0.065694
840.5147,0.064913
842.3784,0.064402
844.2420,0.063901
846.1057,0.063492
847.9694,0.063291
849.8330,0.063291
851.6967,0.062945
853.5604,0.062245
855.4240,0.062014
857.2877,0.061868
859.1514,0.061302
861.0150,0.060996
862.8787,0.061040
864.7424,0.060968
866.6060,0.061070
868.4697,0.061535
870.3334,0.061958
872.1971,0.062057
874.0607,0.061621
875.9244,0.061118
877.7881,0.060810
879.6517,0.060336
881.5154,0.059819
883.3791,0.059343
885.2427,0.058654
887.1064,0.058217
888.9701,0.058155
890.8337,0.058012
892.6974,0.058060
894.5611,0.058133
896.4247,0.057694
898.2884,0.057334
900.1521,0.057299
902.0158,0.057129
903.8794,0.056768
905.7431,0.056817
907.6068,0.057236
909.4704,0.057480
911.3341,0.057768
913.1978,0.058395
915.0614,0.058951
916.9251,0.059514
918.7888,0.060333
920.6524,0.061045
922.5161,0.061448
924.3798,0.061622
926.2435,0.061526
928.1071,0.061112
929.9708,0.060594
931.8345,0.060223
933.6981,0.060091
935.5618,0.059928
937.4255,0.059849
939.2891,0.060035
941.1528,0.060469
943.0165,0.060845
944.8801,0.060949
946.7438,0.061112
948.6075,0.061337
950.4711,0.061494
952.3348,0.061654
954.1985,0.061926
956.0622,0.062557
957.9258,0.063601
959.7895,0.064888
961.6532,0.066377
963.5168,0.067881
965.3805,0.069432
967.2442,0.070869
969.1078,0.071802
970.9715,0.072405
972.8352,0.073158
974.6988,0.074211
976.5625,0.075334
978.4262,0.076434
980.2899,0.077444
982.1535,0.078475
984.0172,0.079462
985.8809,0.080349
987.7445,0.081317
989.6082,0.082388
991.4719,0.083478
993.3355,0.084536
995.1992,0.085620
997.0629,0.086904
998.9265,0.088206
1000.7902,0.089387
1002.6539,0.090670
1004.5175,0.092188
1006.3812,0.094010
1008.2449,0.096152
1010.1086,0.098542
1011.9722,0.101011
1013.8359,0.103534
1015.6996,0.105912
1017.5632,0.107922
1019.4269,0.109442
1021.2906,0.110574
1023.1542,0.111391
1025.0179,0.112035
1026.8816,0.112830
1028.7452,0.113549
1030.6089,0.114104
1032.4726,0.114739
1034.3362,0.115206
1036.1999,0.115500
1038.0636,0.115821
1039.9273,0.116157
1041.7909,0.116314
1043.6546,0.116319
1045.5183,0.116256
1047.3819,0.116104
1049.2456,0.116000
1051.1093,0.115878
1052.9729,0.115693
1054.8366,0.115458
1056.7003,0.115364
1058.5639,0.115484
1060.4276,0.115585
1062.2913,0.115665
1064.1550,0.115881
1066.0186,0.116313
1067.8823,0.116735
1069.7460,0.117063
1071.6096,0.117158
1073.4733,0.116968
1075.3370,0.116400
1077.2006,0.115443
1079.0643,0.114003
1080.9280,0.112061
1082.7916,0.109846
1084.6553,0.107512
1086.5190,0.105230
1088.3826,0.103086
1090.2463,0.101170
1092.1100,0.099755
1093.9737,0.098640
1095.8373,0.097638
1097.7010,0.096843
1099.5647,0.096256
1101.4283,0.095816
1103.2920,0.095429
1105.1557,0.095228
1107.0193,0.095317
1108.8830,0.095424
1110.7467,0.095433
1112.6103,0.095447
1114.4740,0.095352
1116.3377,0.095072
1118.2014,0.094697
1120.0650,0.094198
1121.9287,0.093732
1123.7924,0.093171
1125.6560,0.092424
1127.5197,0.091666
1129.3834,0.090843
1131.2470,0.089859
1133.1107,0.088853
1134.9744,0.087920
1136.8380,0.086929
1138.7017,0.085769
1140.5654,0.084810
1142.4290,0.084155
1144.2927,0.083623
1146.1564,0.083322
1148.0201,0.083148
1149.8837,0.082954
1151.7474,0.082697
1153.6111,0.082411
1155.4747,0.082112
1157.3384,0.081691
1159.2021,0.081103
1161.0657,0.080372
1162.9294,0.079465
1164.7931,0.078431
1166.6567,0.077234
1168.5204,0.075809
1170.3841,0.074375
1172.2477,0.072859
1174.1114,0.071228
1175.9751,0.069685
1177.8388,0.068546
1179.7024,0.067836
1181.5661,0.067521
1183.4298,0.067552
1185.2934,0.067841
1187.1571,0.068268
1189.0208,0.068653
1190.8844,0.069055
1192.7481,0.069583
1194.6118,0.070293
1196.4754,0.071140
1198.3391,0.072031
1200.2028,0.072987
1202.0665,0.073928
1203.9301,0.074674
1205.7938,0.075160
1207.6575,0.075465
1209.5211,0.075601
1211.3848,0.075836
1213.2485,0.076284
1215.1121,0.076929
1216.9758,0.077850
1218.8395,0.078921
1220.7031,0.080017
1222.5668,0.081321
1224.4305,0.082784
1226.2941,0.084240
1228.1578,0.085589
1230.0215,0.086831
1231.8852,0.087954
1233.7488,0.088902
1235.6125,0.089712
1237.4762,0.090240
1239.3398,0.090448
1241.2035,0.090441
1243.0672,0.090145
1244.9308,0.089582
1246.7945,0.088755
1248.6582,0.087827
1250.5218,0.087011
1252.3855,0.086279
1254.2492,0.085452
1256.1129,0.084669
1257.9765,0.084064
1259.8402,0.083584
1261.7039,0.083136
1263.5675,0.082761
1265.4312,0.082586
1267.2949,0.082405
1269.1585,0.082175
1271.0222,0.081984
1272.8859,0.081787
1274.7495,0.081676
1276.6132,0.081540
1278.4769,0.081328
1280.3405,0.081346
1282.2042,0.081397
1284.0679,0.081382
1285.9316,0.081463
1287.7952,0.081771
1289.6589,0.082052
1291.5226,0.082292
1293.3862,0.082620
1295.2499,0.083298
1297.1136,0.084013
1298.9772,0.084716
1300.8409,0.085617
1302.7046,0.086481
1304.5682,0.087215
1306.4319,0.088027
1308.2956,0.088903
1310.1592,0.089796
1312.0229,0.090752
1313.8866,0.091400
1315.7503,0.091611
1317.6139,0.092139
1319.4776,0.092508
1321.3413,0.092404
1323.2049,0.092466
1325.0686,0.092794
1326.9323,0.093144
1328.7959,0.093407
1330.6596,0.093677
1332.5233,0.093751
1334.3869,0.093403
1336.2506,0.093541
1338.1143,0.094504
1339.9780,0.095310
1341.8416,0.094631
1343.7053,0.093740
1345.5690,0.093259
1347.4326,0.092825
1349.2963,0.092504
1351.1600,0.092314
1353.0236,0.092307
1354.8873,0.092470
1356.7510,0.092285
1358.6146,0.092088
1360.4783,0.093322
1362.3420,0.096116
1364.2056,0.097711
1366.0693,0.098447
1367.9330,0.100291
1369.7967,0.101838
1371.6603,0.103453
1373.5240,0.106838
1375.3877,0.109104
1377.2513,0.109903
1379.1150,0.111819
1380.9787,0.113534
1382.8423,0.114764
1384.7060,0.116392
1386.5697,0.120179
1388.4333,0.122692
1390.2970,0.122150
1392.1607,0.123172
1394.0244,0.126753
1395.8880,0.128939
1397.7517,0.130061
1399.6154,0.131366
1401.4790,0.129920
1403.3427,0.129981
1405.2064,0.130334
1407.0700,0.128334
1408.9337,0.126148
1410.7974,0.124275
1412.6610,0.121164
1414.5247,0.117656
1416.3884,0.115723
1418.2520,0.116831
1420.1157,0.114876
1421.9794,0.110946
1423.8431,0.109796
1425.7067,0.108181
1427.5704,0.107550
1429.4341,0.108596
1431.2977,0.108172
1433.1614,0.107331
1435.0251,0.110299
1436.8887,0.115323
1438.7524,0.113975
1440.6161,0.112760
1442.4797,0.113054
1444.3434,0.112962
1446.2071,0.113638
1448.0707,0.114407
1449.9344,0.112361
1451.7981,0.109740
1453.6618,0.107646
1455.5254,0.109566
1457.3891,0.112990
1459.2528,0.107053
1461.1164,0.101704
1462.9801,0.100359
1464.8438,0.100825
1466.7074,0.097587
1468.5711,0.093888
1470.4348,0.093230
1472.2984,0.095609
1474.1621,0.094631
1476.0258,0.092491
1477.8895,0.090528
1479.7531,0.089581
1481.6168,0.089845
1483.4805,0.089503
1485.3441,0.090539
1487.2078,0.094222
1489.0715,0.100033
1490.9351,0.103131
1492.7988,0.102130
1494.6625,0.105230
1496.5261,0.113151
1498.3898,0.117654
1500.2535,0.118145
1502.1171,0.117329
1503.9808,0.120117
1505.8445,0.133847
1507.7082,0.145245
1509.5718,0.142144
1511.4355,0.142606
1513.2992,0.144436
1515.1628,0.147563
1517.0265,0.150591
1518.8902,0.151436
1520.7538,0.157102
1522.6175,0.159392
1524.4812,0.158404
1526.3448,0.160561
1528.2085,0.159915
1530.0722,0.158936
1531.9359,0.161440
1533.7995,0.163591
1535.6632,0.158726
1537.5269,0.159351
1539.3905,0.167333
1541.2542,0.168790
1543.1179,0.164972
1544.9815,0.162087
1546.8452,0.157799
1548.7089,0.155904
1550.5725,0.153000
1552.4362,0.149254
1554.2999,0.146303
1556.1635,0.144508
1558.0272,0.151587
1559.8909,0.149129
1561.7546,0.137890
1563.6182,0.134178
1565.4819,0.131381
1567.3456,0.129225
1569.2092,0.129049
1571.0729,0.124490
1572.9366,0.120787
1574.8002,0.122288
1576.6639,0.123064
1578.5276,0.118818
1580.3912,0.116972
1582.2549,0.116572
1584.1186,0.116469
1585.9822,0.116571
1587.8459,0.116896
1589.7096,0.117630
1591.5733,0.118918
1593.4369,0.120632
1595.3006,0.122289
1597.1643,0.123624
1599.0279,0.125535
1600.8916,0.128239
1602.7553,0.131313
1604.6189,0.134368
1606.4826,0.137899
1608.3463,0.142018
1610.2099,0.145007
1612.0736,0.146981
1613.9373,0.150357
1615.8010,0.157626
1617.6646,0.160872
1619.5283,0.159634
1621.3920,0.162517
1623.2556,0.166994
1625.1193,0.167447
1626.9830,0.168279
1628.8466,0.167784
1630.7103,0.165146
1632.5740,0.164465
1634.4376,0.168231
1636.3013,0.167460
1638.1650,0.160491
1640.0286,0.155552
1641.8923,0.151526
1643.7560,0.148971
1645.6197,0.148605
1647.4833,0.143821
1649.3470,0.137374
1651.2107,0.138621
1653.0743,0.142427
1654.9380,0.132133
1656.8017,0.125186
1658.6653,0.121109
1660.5290,0.118577
1662.3927,0.115712
1664.2563,0.110095
1666.1200,0.105461
1667.9837,0.103291
1669.8474,0.099625
1671.7110,0.094218
1673.5747,0.090878
1675.4384,0.087250
1677.3020,0.081335
1679.1657,0.077250
1681.0294,0.073582
1682.8930,0.071795
1684.7567,0.067445
1686.6204,0.060948
1688.4840,0.056829
1690.3477,0.052433
1692.2114,0.047893
1694.0750,0.044479
1695.9387,0.040397
1697.8024,0.035911
1699.6661,0.033187
1701.5297,0.029073
1703.3934,0.026298
1705.2571,0.024484
1707.1207,0.022208
1708.9844,0.020318
1710.8481,0.018907
1712.7117,0.017806
1714.5754,0.017043
1716.4391,0.016667
1718.3027,0.015541
1720.1664,0.014251
1722.0301,0.013551
1723.8937,0.012960
1725.7574,0.012219
1727.6211,0.011533
1729.4848,0.010951
1731.3484,0.010686
1733.2121,0.010538
1735.0758,0.009942
1736.9394,0.009149
1738.8031,0.008837
1740.6668,0.008634
1742.5304,0.008331
1744.3941,0.007974
1746.2578,0.007664
1748.1214,0.007324
1749.9851,0.006937
1751.8488,0.006568
1753.7125,0.006210
1755.5761,0.005877
1757.4398,0.005634
1759.3035,0.005289
1761.1671,0.005043
1763.0308,0.004863
1764.8945,0.004645
1766.7581,0.004532
1768.6218,0.004449
1770.4855,0.004297
1772.3491,0.003975
1774.2128,0.003602
1776.0765,0.003492
1777.9401,0.003603
1779.8038,0.003606
1781.6675,0.003384
1783.5312,0.003362
1785.3948,0.003378
1787.2585,0.003120
1789.1222,0.002956
1790.9858,0.002850
1792.8495,0.002727
1794.7132,0.002726
1796.5768,0.002544
1798.4405,0.002388
1800.3042,0.002466
1802.1678,0.002478
1804.0315,0.002224
1805.8952,0.001998
1807.7589,0.001925
1809.6225,0.001859
1811.4862,0.001756
1813.3499,0.001536
1815.2135,0.001416
1817.0772,0.001588
1818.9409,0.001777
1820.8045,0.001867
1822.6682,0.001658
1824.5319,0.001292
1826.3955,0.001430
1828.2592,0.001820
1830.1229,0.001757
1831.9865,0.001496
1833.8502,0.001501
1835.7139,0.001553
1837.5776,0.001611
1839.4412,0.001532
1841.3049,0.001406
1843.1686,0.001500
1845.0322,0.001386
1846.8959,0.001315
1848.7596,0.001309
1850.6232,0.001567
1852.4869,0.001635
1854.3506,0.001531
1856.2142,0.001558
1858.0779,0.001401
1859.9416,0.001336
1861.8052,0.001511
1863.6689,0.001631
1865.5326,0.001432
1867.3963,0.001001
1869.2599,0.000977
1871.1236,0.001448
1872.9873,0.001862
1874.8509,0.001726
1876.7146,0.001751
1878.5783,0.001874
1880.4419,0.001399
1882.3056,0.001093
1884.1693,0.001321
1886.0329,0.001370
1887.8966,0.001092
1889.7603,0.001503
1891.6240,0.001891
1893.4876,0.001881
1895.3513,0.001614
1897.2150,0.001494
1899.0786,0.001657
1900.9423,0.001956
1902.8060,0.002237
1904.6696,0.001919
1906.5333,0.001579
1908.3970,0.001550
1910.2606,0.001370
1912.1243,0.001379
1913.9880,0.001723
1915.8516,0.001785
1917.7153,0.002058
1919.5790,0.002269
1921.4427,0.002038
1923.3063,0.001723
1925.1700,0.001328
1927.0337,0.001530
1928.8973,0.002183
1930.7610,0.002294
1932.6247,0.001786
1934.4883,0.001353
1936.3520,0.001391
1938.2157,0.001525
1940.0793,0.001671
1941.9430,0.001744
1943.8067,0.002135
1945.6704,0.002248
1947.5340,0.002013
1949.3977,0.002332
1951.2614,0.003168
1953.1250,0.003149
1954.9887,0.002163
1956.8524,0.001588
1958.7160,0.002810
1960.5797,0.003469
1962.4434,0.002904
1964.3070,0.002863
1966.1707,0.003101
1968.0344,0.003088
1969.8980,0.003020
1971.7617,0.003232
1973.6254,0.003675
1975.4891,0.003456
1977.3527,0.003895
1979.2164,0.004650
1981.0801,0.004056
1982.9437,0.003993
1984.8074,0.003192
1986.6711,0.002761
1988.5347,0.003689
1990.3984,0.003378
1992.2621,0.002669
1994.1257,0.003265
1995.9894,0.003861
1997.8531,0.003360
1999.7167,0.003029
2001.5804,0.002628
2003.4441,0.002529
2005.3078,0.003369
2007.1714,0.004177
2009.0351,0.004720
2010.8988,0.004782
2012.7624,0.004317
2014.6261,0.003226
2016.4898,0.003387
2018.3534,0.004379
2020.2171,0.004817
2022.0808,0.004699
2023.9444,0.004960
2025.8081,0.005389
2027.6718,0.004958
2029.5355,0.004888
2031.3991,0.005964
2033.2628,0.006238
2035.1265,0.006069
2036.9901,0.006582
2038.8538,0.006593
2040.7175,0.006235
2042.5811,0.007433
2044.4448,0.008315
2046.3085,0.008292
2048.1721,0.009126
2050.0358,0.009139
2051.8995,0.007748
2053.7631,0.007929
2055.6268,0.009099
2057.4905,0.009124
2059.3542,0.008348
2061.2178,0.008057
2063.0815,0.008568
2064.9452,0.008443
2066.8088,0.008530
2068.6725,0.009206
2070.5362,0.009033
2072.3998,0.009031
2074.2635,0.008903
2076.1272,0.008380
2077.9908,0.008167
2079.8545,0.007769
2081.7182,0.007350
2083.5819,0.007137
2085.4455,0.006686
2087.3092,0.006140
2089.1729,0.006072
2091.0365,0.006363
2092.9002,0.006800
2094.7639,0.006950
2096.6275,0.006681
2098.4912,0.006945
2100.3549,0.007076
2102.2185,0.006769
2104.0822,0.007063
2105.9459,0.007620
2107.8095,0.007531
2109.6732,0.007104
2111.5369,0.006757
2113.4006,0.006684
2115.2642,0.007135
2117.1279,0.007262
2118.9916,0.006638
2120.8552,0.006190
2122.7189,0.006298
2124.5826,0.006461
2126.4462,0.006734
2128.3099,0.006733
2130.1736,0.005873
2132.0372,0.005027
2133.9009,0.005400
2135.7646,0.005822
2137.6282,0.005789
2139.4919,0.006448
2141.3556,0.006658
2143.2193,0.006099
2145.0829,0.005944
2146.9466,0.006464
2148.8103,0.006670
2150.6739,0.006504
2152.5376,0.005694
2154.4013,0.005411
2156.2649,0.006935
2158.1286,0.008047
2159.9923,0.008731
2161.8559,0.008307
2163.7196,0.006810
2165.5833,0.006881
2167.4470,0.007515
2169.3106,0.008244
2171.1743,0.009154
2173.0380,0.008875
2174.9016,0.007553
2176.7653,0.007851
2178.6290,0.009383
2180.4926,0.009927
2182.3563,0.009577
2184.2200,0.009298
2186.0836,0.009125
2187.9473,0.008905
2189.8110,0.008330
2191.6746,0.007574
2193.5383,0.007542
2195.4020,0.008285
2197.2657,0.008733
2199.1293,0.008335
2200.9930,0.008242
2202.8567,0.008498
2204.7203,0.007960
2206.5840,0.007771
2208.4477,0.008286
2210.3113,0.008714
2212.1750,0.008561
2214.0387,0.007851
2215.9023,0.007505
2217.7660,0.007698
2219.6297,0.007958
2221.4934,0.008169
2223.3570,0.008013
2225.2207,0.007490
2227.0844,0.007776
2228.9480,0.008317
2230.8117,0.008114
2232.6754,0.007779
2234.5390,0.007548
2236.4027,0.007291
2238.2664,0.007461
2240.1300,0.007836
2241.9937,0.007923
2243.8574,0.007927
2245.7210,0.007534
2247.5847,0.007614
2249.4484,0.008021
2251.3121,0.007997
2253.1757,0.007687
2255.0394,0.007349
2256.9031,0.007644
2258.7667,0.007890
2260.6304,0.008058
2262.4941,0.008378
2264.3577,0.008381
2266.2214,0.008610
2268.0851,0.008632
2269.9487,0.008367
2271.8124,0.008606
2273.6761,0.008398
2275.5397,0.007800
2277.4034,0.007751
2279.2671,0.008038
2281.1308,0.008348
2282.9944,0.008407
2284.8581,0.008233
2286.7218,0.008093
2288.5854,0.008180
2290.4491,0.008414
2292.3128,0.008315
2294.1764,0.008129
2296.0401,0.008122
2297.9038,0.007928
2299.7674,0.007718
2301.6311,0.007808
2303.4948,0.007706
2305.3585,0.007665
2307.2221,0.008054
2309.0858,0.008128
2310.9495,0.008010
2312.8131,0.008239
2314.6768,0.008423
2316.5405,0.008481
2318.4041,0.008627
2320.2678,0.008602
2322.1315,0.008693
2323.9951,0.008840
2325.8588,0.008692
2327.7225,0.008349
2329.5861,0.007856
2331.4498,0.007798
2333.3135,0.008036
2335.1772,0.007983
2337.0408,0.008052
2338.9045,0.008450
2340.7682,0.008780
2342.6318,0.009092
2344.4955,0.009083
2346.3592,0.008176
2348.2228,0.007266
2350.0865,0.006893
2351.9502,0.007067
2353.8138,0.007501
2355.6775,0.007843
2357.5412,0.008526
2359.4049,0.009023
2361.2685,0.009186
2363.1322,0.009225
2364.9959,0.009339
2366.8595,0.009650
2368.7232,0.009881
2370.5869,0.009644
2372.4505,0.009391
2374.3142,0.009420
2376.1779,0.009329
2378.0415,0.009102
2379.9052,0.008851
2381.7689,0.008538
2383.6325,0.008279
2385.4962,0.008399
2387.3599,0.008581
2389.2236,0.008479
2391.0872,0.008372
2392.9509,0.008616
2394.8146,0.008961
2396.6782,0.009046
2398.5419,0.009024
2400.4056,0.008824
2402.2692,0.008745
2404.1329,0.008766
2405.9966,0.008889
2407.8602,0.009156
2409.7239,0.009340
2411.5876,0.009321
2413.4512,0.009211
2415.3149,0.009331
2417.1786,0.009596
2419.0423,0.009633
2420.9059,0.009799
2422.7696,0.010062
2424.6333,0.009939
2426.4969,0.009981
2428.3606,0.010375
2430.2243,0.010390
2432.0879,0.010114
2433.9516,0.010201
2435.8153,0.010495
2437.6789,0.010510
2439.5426,0.010527
2441.4063,0.010622
2443.2700,0.010768
2445.1336,0.011045
2446.9973,0.010926
2448.8610,0.010766
2450.7246,0.010856
2452.5883,0.010958
2454.4520,0.011170
2456.3156,0.011365
2458.1793,0.011369
2460.0430,0.011195
2461.9066,0.011107
2463.7703,0.011419
2465.6340,0.011618
2467.4976,0.011592
2469.3613,0.011517
2471.2250,0.011487
2473.0887,0.011537
2474.9523,0.011701
2476.8160,0.011722
2478.6797,0.011761
2480.5433,0.011831
2482.4070,0.011717
2484.2707,0.011868
2486.1343,0.012267
2487.9980,0.012422
2489.8617,0.012376
2491.7253,0.012161
2493.5890,0.012194
2495.4527,0.012424
2497.3164,0.012281
2499.1800,0.012617
2501.0437,0.013088
2502.9074,0.012863
2504.7710,0.012786
2506.6347,0.012987
2508.4984,0.013087
2510.3620,0.013160
2512.2257,0.013181
2514.0894,0.013267
2515.9530,0.013447
2517.8167,0.013711
2519.6804,0.013801
2521.5440,0.013756
2523.4077,0.013737
2525.2714,0.013644
2527.1351,0.013704
2528.9987,0.013864
2530.8624,0.013627
2532.7261,0.013354
2534.5897,0.013687
2536.4534,0.013932
2538.3171,0.014068
2540.1807,0.014296
2542.0444,0.014406
2543.9081,0.014570
2545.7717,0.014603
2547.6354,0.014591
2549.4991,0.014736
2551.3627,0.014872
2553.2264,0.014926
2555.0901,0.014993
2556.9538,0.014907
2558.8174,0.014761
2560.6811,0.014937
2562.5448,0.015201
2564.4084,0.015151
2566.2721,0.015350
2568.1358,0.015466
2569.9994,0.015198
2571.8631,0.015143
2573.7268,0.015604
2575.5904,0.016107
2577.4541,0.016182
2579.3178,0.016092
2581.1815,0.016084
2583.0451,0.016213
2584.9088,0.016326
2586.7725,0.016401
2588.6361,0.016728
2590.4998,0.016808
2592.3635,0.016754
2594.2271,0.016666
2596.0908,0.016940
2597.9545,0.017271
2599.8181,0.017533
2601.6818,0.017847
2603.5455,0.018022
2605.4091,0.018041
2607.2728,0.018197
2609.1365,0.018243
2611.0002,0.018118
2612.8638,0.018231
2614.7275,0.018464
2616.5912,0.018594
2618.4548,0.018721
2620.3185,0.018848
2622.1822,0.018933
2624.0458,0.019288
2625.9095,0.019462
2627.7732,0.019360
2629.6368,0.019471
2631.5005,0.019841
2633.3642,0.020113
2635.2279,0.020166
2637.0915,0.020162
2638.9552,0.020239
2640.8189,0.020384
2642.6825,0.020412
2644.5462,0.020463
2646.4099,0.020579
2648.2735,0.020701
2650.1372,0.020781
2652.0009,0.020992
2653.8645,0.021121
2655.7282,0.020938
2657.5919,0.020831
2659.4555,0.021038
2661.3192,0.021266
2663.1829,0.021261
2665.0466,0.021185
2666.9102,0.021219
2668.7739,0.021350
2670.6376,0.021552
2672.5012,0.021682
2674.3649,0.021722
2676.2286,0.021747
2678.0922,0.021881
2679.9559,0.022029
2681.8196,0.022224
2683.6832,0.022378
2685.5469,0.022392
2687.4106,0.022436
2689.2742,0.022466
2691.1379,0.022522
2693.0016,0.022763
2694.8653,0.022886
2696.7289,0.023090
2698.5926,0.023306
2700.4563,0.023344
2702.3199,0.023408
2704.1836,0.023644
2706.0473,0.024018
2707.9109,0.024263
2709.7746,0.024388
2711.6383,0.024422
2713.5019,0.024670
2715.3656,0.024851
2717.2293,0.025009
2719.0930,0.025237
2720.9566,0.025401
2722.8203,0.025620
2724.6840,0.025917
2726.5476,0.025984
2728.4113,0.026131
2730.2750,0.026321
2732.1386,0.026355
2734.0023,0.026505
2735.8660,0.026696
2737.7296,0.026788
2739.5933,0.026962
2741.4570,0.027307
2743.3206,0.027682
2745.1843,0.028008
2747.0480,0.028020
2748.9117,0.027924
2750.7753,0.028065
2752.6390,0.028433
2754.5027,0.028613
2756.3663,0.028598
2758.2300,0.028879
2760.0937,0.029194
2761.9573,0.029432
2763.8210,0.029626
2765.6847,0.029743
2767.5483,0.029829
2769.4120,0.030108
2771.2757,0.030444
2773.1394,0.030654
2775.0030,0.030896
2776.8667,0.031078
2778.7304,0.031220
2780.5940,0.031410
2782.4577,0.031694
2784.3214,0.032133
2786.1850,0.032386
2788.0487,0.032454
2789.9124,0.032520
2791.7760,0.032681
2793.6397,0.032916
2795.5034,0.033429
2797.3670,0.033735
2799.2307,0.033633
2801.0944,0.033747
2802.9581,0.034159
2804.8217,0.034408
2806.6854,0.034649
2808.5491,0.034917
2810.4127,0.035257
2812.2764,0.035409
2814.1401,0.035560
2816.0037,0.035886
2817.8674,0.036271
2819.7311,0.036359
2821.5947,0.036585
2823.4584,0.036859
2825.3221,0.036894
2827.1857,0.037173
2829.0494,0.037552
2830.9131,0.037883
2832.7768,0.038193
2834.6404,0.038312
2836.5041,0.038661
2838.3678,0.039166
2840.2314,0.039512
2842.0951,0.039974
2843.9588,0.040578
2845.8224,0.040964
2847.6861,0.041481
2849.5498,0.042068
2851.4134,0.042798
2853.2771,0.043275
2855.1408,0.043508
2857.0045,0.043894
2858.8681,0.044681
2860.7318,0.045018
2862.5955,0.045361
2864.4591,0.045903
2866.3228,0.046474
2868.1865,0.047196
2870.0501,0.048035
2871.9138,0.048485
2873.7775,0.048756
2875.6411,0.048929
2877.5048,0.048844
2879.3685,0.048732
2881.2321,0.048816
2883.0958,0.048914
2884.9595,0.048761
2886.8232,0.048473
2888.6868,0.048743
2890.5505,0.048965
2892.4142,0.049080
2894.2778,0.049256
2896.1415,0.049543
2898.0052,0.049970
2899.8688,0.050296
2901.7325,0.050434
2903.5962,0.050838
2905.4598,0.051102
2907.3235,0.051729
2909.1872,0.052455
2911.0509,0.053147
2912.9145,0.053649
2914.7782,0.053955
2916.6419,0.054432
2918.5055,0.055237
2920.3692,0.055612
2922.2329,0.056058
2924.0965,0.056912
2925.9602,0.057490
2927.8239,0.057554
2929.6875,0.057554
2931.5512,0.057593
2933.4149,0.057627
2935.2785,0.057691
2937.1422,0.057843
2939.0059,0.057767
2940.8696,0.057784
2942.7332,0.057588
2944.5969,0.057374
2946.4606,0.057083
2948.3242,0.057074
2950.1879,0.057296
2952.0516,0.057680
2953.9152,0.057934
2955.7789,0.058255
2957.6426,0.058572
2959.5062,0.058434
2961.3699,0.058294
2963.2336,0.058089
2965.0972,0.057823
2966.9609,0.057662
2968.8246,0.057335
2970.6883,0.056990
2972.5519,0.056623
2974.4156,0.056301
2976.2793,0.056056
2978.1429,0.055647
2980.0066,0.054758
2981.8703,0.054239
2983.7339,0.054090
2985.5976,0.053835
2987.4613,0.053532
2989.3249,0.053282
2991.1886,0.053070
2993.0523,0.052747
2994.9160,0.052381
2996.7796,0.052095
2998.6433,0.051944
3000.5070,0.052446
3002.3706,0.052781
3004.2343,0.052594
3006.0980,0.052659
3007.9616,0.053228
3009.8253,0.053596
3011.6890,0.053818
3013.5526,0.054163
3015.4163,0.054293
3017.2800,0.054360
3019.1436,0.054510
3021.0073,0.054791
3022.8710,0.055467
3024.7347,0.055849
3026.5983,0.056410
3028.4620,0.056933
3030.3257,0.057210
3032.1893,0.057390
3034.0530,0.057764
3035.9167,0.058146
3037.7803,0.058631
3039.6440,0.058996
3041.5077,0.059385
3043.3713,0.059711
3045.2350,0.060168
3047.0987,0.060300
3048.9624,0.060707
3050.8260,0.061054
3052.6897,0.061441
3054.5534,0.061887
3056.4170,0.062129
3058.2807,0.062248
3060.1444,0.062701
3062.0080,0.063016
3063.8717,0.063358
3065.7354,0.063403
3067.5990,0.063002
3069.4627,0.062712
3071.3264,0.063129
3073.1900,0.063490
3075.0537,0.063743
3076.9174,0.063683
3078.7811,0.063593
3080.6447,0.063139
3082.5084,0.063081
3084.3721,0.063444
3086.2357,0.063374
3088.0994,0.062954
3089.9631,0.063088
3091.8267,0.063096
3093.6904,0.062948
3095.5541,0.063184
3097.4177,0.063388
3099.2814,0.063073
3101.1451,0.063160
3103.0087,0.063073
3104.8724,0.062915
3106.7361,0.063278
3108.5998,0.063913
3110.4634,0.063982
3112.3271,0.064121
3114.1908,0.064334
3116.0544,0.064633
3117.9181,0.064839
3119.7818,0.064982
3121.6454,0.064653
3123.5091,0.064453
3125.3728,0.064866
3127.2364,0.065673
3129.1001,0.066093
3130.9638,0.066415
3132.8275,0.066781
3134.6911,0.067133
3136.5548,0.067473
3138.4185,0.068045
3140.2821,0.068382
3142.1458,0.068930
3144.0095,0.069745
3145.8731,0.070065
3147.7368,0.070343
3149.6005,0.070909
3151.4641,0.071163
3153.3278,0.071492
3155.1915,0.071716
3157.0551,0.071966
3158.9188,0.072381
3160.7825,0.073301
3162.6462,0.074205
3164.5098,0.074917
3166.3735,0.075121
3168.2372,0.075134
3170.1008,0.075589
3171.9645,0.076330
3173.8282,0.076591
3175.6918,0.077013
3177.5555,0.077647
3179.4192,0.078334
3181.2828,0.078761
3183.1465,0.079191
3185.0102,0.079733
3186.8739,0.080122
3188.7375,0.080181
3190.6012,0.080501
3192.4649,0.081066
3194.3285,0.081461
3196.1922,0.081565
3198.0559,0.081841
3199.9195,0.081928
3201.7832,0.082272
3203.6469,0.082303
3205.5105,0.082628
3207.3742,0.082844
3209.2379,0.083393
3211.1015,0.083624
3212.9652,0.083737
3214.8289,0.083553
3216.6926,0.083578
3218.5562,0.083687
3220.4199,0.084055
3222.2836,0.084202
3224.1472,0.084619
3226.0109,0.084760
3227.8746,0.084886
3229.7382,0.084846
3231.6019,0.085119
3233.4656,0.085109
3235.3292,0.085154
3237.1929,0.085569
3239.0566,0.086156
3240.9202,0.086051
3242.7839,0.086015
3244.6476,0.086442
3246.5113,0.086999
3248.3749,0.086930
3250.2386,0.087041
3252.1023,0.087037
3253.9659,0.087468
3255.8296,0.088113
3257.6933,0.088669
3259.5569,0.088761
3261.4206,0.088704
3263.2843,0.089184
3265.1479,0.089514
3267.0116,0.088983
3268.8753,0.088851
3270.7390,0.088422
3272.6026,0.088837
3274.4663,0.089562
3276.3300,0.089443
3278.1936,0.089301
3280.0573,0.089505
3281.9210,0.088646
3283.7846,0.088338
3285.6483,0.087985
3287.5120,0.087672
3289.3756,0.087187
3291.2393,0.086878
3293.1030,0.086439
3294.9666,0.086104
3296.8303,0.085327
3298.6940,0.084784
3300.5577,0.084419
3302.4213,0.083954
3304.2850,0.083321
3306.1487,0.083227
3308.0123,0.082898
3309.8760,0.081770
3311.7397,0.081210
3313.6033,0.081334
3315.4670,0.080974
3317.3307,0.080769
3319.1943,0.080496
3321.0580,0.079818
3322.9217,0.078932
3324.7854,0.078814
3326.6490,0.078774
3328.5127,0.078047
3330.3764,0.077530
3332.2400,0.077718
3334.1037,0.077669
3335.9674,0.077455
3337.8310,0.076826
3339.6947,0.076148
3341.5584,0.075759
3343.4220,0.075619
3345.2857,0.075054
3347.1494,0.074714
3349.0130,0.074521
3350.8767,0.074421
3352.7404,0.074056
3354.6041,0.073743
3356.4677,0.073539
3358.3314,0.073871
3360.1951,0.073403
3362.0587,0.072614
3363.9224,0.072499
3365.7861,0.072137
3367.6497,0.071176
3369.5134,0.070716
3371.3771,0.070730
3373.2407,0.071087
3375.1044,0.070738
3376.9681,0.069784
3378.8317,0.069186
3380.6954,0.069295
3382.5591,0.069306
3384.4228,0.069182
3386.2864,0.068563
3388.1501,0.069004
3390.0138,0.069102
3391.8774,0.067911
3393.7411,0.067478
3395.6048,0.067250
3397.4684,0.066690
3399.3321,0.066227
3401.1958,0.065839
3403.0594,0.065965
3404.9231,0.065316
3406.7868,0.064637
3408.6505,0.064134
3410.5141,0.064035
3412.3778,0.064006
3414.2415,0.063947
3416.1051,0.063636
3417.9688,0.063219
3419.8325,0.062322
3421.6961,0.062085
3423.5598,0.061754
3425.4235,0.060979
3427.2871,0.060335
3429.1508,0.059954
3431.0145,0.059356
3432.8781,0.058955
3434.7418,0.058690
3436.6055,0.058726
3438.4692,0.058385
3440.3328,0.058212
3442.1965,0.057785
3444.0602,0.057130
3445.9238,0.056428
3447.7875,0.056173
3449.6512,0.055612
3451.5148,0.055056
3453.3785,0.054537
3455.2422,0.054040
3457.1058,0.053548
3458.9695,0.053004
3460.8332,0.052171
3462.6969,0.051727
3464.5605,0.051138
3466.4242,0.051025
3468.2879,0.050760
3470.1515,0.050765
3472.0152,0.050356
3473.8789,0.049142
3475.7425,0.048496
3477.6062,0.048068
3479.4699,0.047166
3481.3335,0.046553
3483.1972,0.046840
3485.0609,0.046863
3486.9245,0.045855
3488.7882,0.045036
3490.6519,0.044268
3492.5156,0.043625
3494.3792,0.042911
3496.2429,0.042026
3498.1066,0.041659
3499.9702,0.041396
3501.8339,0.040951
3503.6976,0.040781
3505.5612,0.040224
3507.4249,0.039364
3509.2886,0.038669
3511.1522,0.038097
3513.0159,0.037325
3514.8796,0.037081
3516.7432,0.036556
3518.6069,0.035475
3520.4706,0.034677
3522.3343,0.034374
3524.1979,0.034268
3526.0616,0.034126
3527.9253,0.033441
3529.7889,0.032356
3531.6526,0.031273
3533.5163,0.031347
3535.3799,0.031287
3537.2436,0.030063
3539.1073,0.028998
3540.9709,0.028768
3542.8346,0.028572
3544.6983,0.027897
3546.5620,0.027131
3548.4256,0.026837
3550.2893,0.026389
3552.1530,0.025936
3554.0166,0.025334
3555.8803,0.024799
3557.7440,0.024508
3559.6076,0.023942
3561.4713,0.023089
3563.3350,0.022435
3565.1986,0.022274
3567.0623,0.021514
3568.9260,0.020746
3570.7896,0.020708
3572.6533,0.020163
3574.5170,0.019318
3576.3807,0.019080
3578.2443,0.018689
3580.1080,0.018072
3581.9717,0.017812
3583.8353,0.017261
3585.6990,0.016406
3587.5627,0.015655
3589.4263,0.015249
3591.2900,0.014839
3593.1537,0.014650
3595.0173,0.014116
3596.8810,0.013178
3598.7447,0.012695
3600.6084,0.012665
3602.4720,0.012483
3604.3357,0.011735
3606.1994,0.010842
3608.0630,0.010249
3609.9267,0.010024
3611.7904,0.009517
3613.6540,0.009077
3615.5177,0.009186
3617.3814,0.008861
3619.2450,0.008310
3621.1087,0.007791
3622.9724,0.007070
3624.8360,0.006479
3626.6997,0.005865
3628.5634,0.005295
3630.4271,0.005100
3632.2907,0.004996
3634.1544,0.004715
3636.0181,0.004430
3637.8817,0.003887
3639.7454,0.003240
3641.6091,0.003029
3643.4727,0.002647
3645.3364,0.001712
3647.2001,0.001291
3649.0637,0.001123
3650.9274,0.000424
3652.7911,0.000077
3654.6547,-0.000188
3656.5184,-0.000701
3658.3821,-0.000954
3660.2458,-0.000941
3662.1094,-0.001104
3663.9731,-0.001617
3665.8368,-0.002141
3667.7004,-0.002463
3669.5641,-0.002719
3671.4278,-0.003387
3673.2914,-0.003857
3675.1551,-0.004045
3677.0188,-0.004479
3678.8824,-0.004292
3680.7461,-0.004042
3682.6098,-0.004395
3684.4735,-0.004584
3686.3371,-0.004905
3688.2008,-0.005498
3690.0645,-0.005549
3691.9281,-0.005500
3693.7918,-0.005501
3695.6555,-0.005593
3697.5191,-0.005940
3699.3828,-0.006110
3701.2465,-0.006349
3703.1101,-0.006360
3704.9738,-0.006113
3706.8375,-0.005788
3708.7011,-0.005767
3710.5648,-0.006176
3712.4285,-0.006656
3714.2922,-0.006635
3716.1558,-0.006257
3718.0195,-0.006369
3719.8832,-0.006827
3721.7468,-0.006774
3723.6105,-0.006604
3725.4742,-0.006634
3727.3378,-0.006458
3729.2015,-0.006330
3731.0652,-0.006586
3732.9288,-0.006977
3734.7925,-0.007083
3736.6562,-0.007227
3738.5199,-0.006931
3740.3835,-0.006541
3742.2472,-0.006404
3744.1109,-0.006891
3745.9745,-0.007682
3747.8382,-0.007129
3749.7019,-0.007192
3751.5655,-0.007783
3753.4292,-0.007067
3755.2929,-0.006296
3757.1565,-0.006537
3759.0202,-0.006881
3760.8839,-0.006897
3762.7475,-0.007033
3764.6112,-0.007119
3766.4749,-0.007030
3768.3386,-0.006680
3770.2022,-0.006571
3772.0659,-0.006633
3773.9296,-0.006541
3775.7932,-0.006624
3777.6569,-0.006806
3779.5206,-0.006994
3781.3842,-0.006952
3783.2479,-0.006742
3785.1116,-0.006789
3786.9752,-0.006781
3788.8389,-0.006511
3790.7026,-0.006349
3792.5662,-0.006410
3794.4299,-0.006616
3796.2936,-0.006861
3798.1573,-0.006766
3800.0209,-0.007043
3801.8846,-0.007753
3803.7483,-0.007439
3805.6119,-0.007009
3807.4756,-0.007218
3809.3393,-0.007047
3811.2029,-0.006843
3813.0666,-0.007093
3814.9303,-0.007297
3816.7939,-0.007248
3818.6576,-0.006858
3820.5213,-0.006756
3822.3850,-0.007105
3824.2486,-0.006969
3826.1123,-0.006974
3827.9760,-0.007182
3829.8396,-0.006925
3831.7033,-0.007053
3833.5670,-0.007368
3835.4306,-0.006975
3837.2943,-0.006982
3839.1580,-0.007264
3841.0216,-0.007088
3842.8853,-0.006944
3844.7490,-0.006908
3846.6126,-0.006858
3848.4763,-0.006927
3850.3400,-0.006970
3852.2037,-0.007294
3854.0673,-0.007753
3855.9310,-0.007450
3857.7947,-0.007169
3859.6583,-0.006927
3861.5220,-0.006545
3863.3857,-0.006627
3865.2493,-0.006875
3867.1130,-0.007081
3868.9767,-0.007363
3870.8403,-0.007411
3872.7040,-0.006958
3874.5677,-0.006739
3876.4314,-0.006968
3878.2950,-0.006964
3880.1587,-0.006671
3882.0224,-0.006563
3883.8860,-0.006789
3885.7497,-0.007051
3887.6134,-0.006942
3889.4770,-0.006625
3891.3407,-0.006383
3893.2044,-0.006372
3895.0680,-0.006526
3896.9317,-0.006873
3898.7954,-0.007164
3900.6590,-0.007006
3902.5227,-0.006420
3904.3864,-0.006685
3906.2501,-0.007102
3908.1137,-0.006756
3909.9774,-0.006482
3911.8411,-0.006268
3913.7047,-0.006158
3915.5684,-0.006442
3917.4321,-0.006605
3919.2957,-0.006434
3921.1594,-0.006120
3923.0231,-0.006162
3924.8867,-0.006517
3926.7504,-0.006636
3928.6141,-0.006625
3930.4777,-0.006792
3932.3414,-0.006688
3934.2051,-0.006213
3936.0688,-0.006252
3937.9324,-0.006635
3939.7961,-0.006401
3941.6598,-0.006133
3943.5234,-0.006158
3945.3871,-0.006133
3947.2508,-0.005993
3949.1144,-0.006146
3950.9781,-0.006291
3952.8418,-0.006054
3954.7054,-0.005891
3956.5691,-0.005997
3958.4328,-0.006036
3960.2965,-0.006273
3962.1601,-0.006447
3964.0238,-0.006292
3965.8875,-0.006447
3967.7511,-0.006673
3969.6148,-0.006506
3971.4785,-0.006281
3973.3421,-0.006311
3975.2058,-0.006260
3977.0695,-0.005919
3978.9331,-0.006033
3980.7968,-0.006347
3982.6605,-0.006409
3984.5241,-0.006364
3986.3878,-0.006434
3988.2515,-0.006355
3990.1152,-0.006305
3991.9788,-0.006110
3993.8425,-0.006144
3995.7062,-0.006210
3997.5698,-0.006004
3999.4335,-0.005865
