Wavenumber,Intensity
650.4205,0.173370
652.2841,0.174404
654.1478,0.176330
656.0115,0.175894
657.8751,0.174231
659.7388,0.170219
661.6025,0.170113
663.4661,0.170234
665.3298,0.167306
667.1935,0.168119
669.0571,0.172138
670.9208,0.168408
672.7845,0.164887
674.6481,0.163477
676.5118,0.163938
678.3755,0.161561
680.2392,0.158532
682.1028,0.157021
683.9665,0.154767
685.8302,0.154148
687.6938,0.155759
689.5575,0.156224
691.4212,0.155192
693.2848,0.154081
695.1485,0.154557
697.0122,0.155429
698.8758,0.154907
700.7395,0.153966
702.6032,0.153467
704.4669,0.152164
706.3305,0.150647
708.1942,0.148880
710.0579,0.147711
711.9215,0.147130
713.7852,0.146049
715.6489,0.147255
717.5125,0.151007
719.3762,0.153559
721.2399,0.152761
723.1035,0.149350
724.9672,0.145227
726.8309,0.139696
728.6945,0.134137
730.5582,0.130874
732.4219,0.128494
734.2856,0.126864
736.1492,0.126424
738.0129,0.125457
739.8766,0.123519
741.7402,0.121872
743.6039,0.121219
745.4676,0.119601
747.3312,0.116438
749.1949,0.114128
751.0586,0.112599
752.9222,0.111105
754.7859,0.110144
756.6496,0.109549
758.5132,0.108550
760.3769,0.107773
762.2406,0.107340
764.1043,0.106636
765.9679,0.105669
767.8316,0.104497
769.6953,0.103082
771.5589,0.101666
773.4226,0.100526
775.2863,0.099633
777.1499,0.098945
779.0136,0.098174
780.8773,0.097294
782.7409,0.096258
784.6046,0.094790
786.4683,0.093418
788.3320,0.092468
790.1956,0.091858
792.0593,0.090752
793.9230,0.089425
795.7866,0.088900
797.6503,0.088398
799.5140,0.087091
801.3776,0.086237
803.2413,0.086189
805.1050,0.085827
806.9686,0.085109
808.8323,0.084723
810.6960,0.084648
812.5596,0.084241
814.4233,0.083713
816.2870,0.083628
818.1507,0.083591
820.0143,0.083501
821.8780,0.083215
823.7417,0.082714
825.6053,0.082082
827.4690,0.081312
829.3327,0.080508
831.1963,0.079887
833.0600,0.079334
834.9237,0.078697
836.7873,0.078052
838.6510,0.077381
840.5147,0.076343
842.3784,0.075254
844.2420,0.074437
846.1057,0.073853
847.9694,0.073310
849.8330,0.072949
851.6967,0.072532
853.5604,0.071948
855.4240,0.071332
857.2877,0.070872
859.1514,0.070629
861.0150,0.070487
862.8787,0.070314
864.7424,0.070399
866.6060,0.070795
868.4697,0.071298
870.3334,0.071792
872.1971,0.072092
874.0607,0.071995
875.9244,0.071609
877.7881,0.071139
879.6517,0.070847
881.5154,0.070565
883.3791,0.070415
885.2427,0.070386
887.1064,0.070456
888.9701,0.070581
890.8337,0.070599
892.6974,0.070602
894.5611,0.070565
896.4247,0.070085
898.2884,0.069409
900.1521,0.068814
902.0158,0.068341
903.8794,0.067978
905.7431,0.067719
907.6068,0.067661
909.4704,0.067931
911.3341,0.068481
913.1978,0.069181
915.0614,0.070034
916.9251,0.070985
918.7888,0.071657
920.6524,0.072118
922.5161,0.072498
924.3798,0.072857
926.2435,0.073118
928.1071,0.073421
929.9708,0.074020
931.8345,0.074882
933.6981,0.075582
935.5618,0.076067
937.4255,0.076794
939.2891,0.077821
941.1528,0.078925
943.0165,0.080203
944.8801,0.081837
946.7438,0.083651
948.6075,0.085413
950.4711,0.087228
952.3348,0.089109
954.1985,0.091008
956.0622,0.093106
957.9258,0.095688
959.7895,0.098477
961.6532,0.101195
963.5168,0.103867
965.3805,0.106055
967.2442,0.107143
969.1078,0.107327
970.9715,0.106943
972.8352,0.106106
974.6988,0.105267
976.5625,0.104923
978.4262,0.105121
980.2899,0.105872
982.1535,0.107005
984.0172,0.108528
985.8809,0.110376
987.7445,0.112529
989.6082,0.114852
991.4719,0.117374
993.3355,0.120115
995.1992,0.122960
997.0629,0.125724
998.9265,0.128501
1000.7902,0.131239
1002.6539,0.133886
1004.5175,0.136643
1006.3812,0.139716
1008.2449,0.143084
1010.1086,0.146659
1011.9722,0.150370
1013.8359,0.154248
1015.6996,0.158117
1017.5632,0.161969
1019.4269,0.165760
1021.2906,0.169240
1023.1542,0.172170
1025.0179,0.174700
1026.8816,0.177155
1028.7452,0.179567
1030.6089,0.181653
1032.4726,0.183265
1034.3362,0.184508
1036.1999,0.185548
1038.0636,0.186457
1039.9273,0.187116
1041.7909,0.187634
1043.6546,0.188398
1045.5183,0.189367
1047.3819,0.190526
1049.2456,0.191920
1051.1093,0.193417
1052.9729,0.194900
1054.8366,0.196263
1056.7003,0.197597
1058.5639,0.198806
1060.4276,0.199739
1062.2913,0.200762
1064.1550,0.201875
1066.0186,0.203061
1067.8823,0.204074
1069.7460,0.204842
1071.6096,0.205342
1073.4733,0.205515
1075.3370,0.205308
1077.2006,0.204594
1079.0643,0.203308
1080.9280,0.201411
1082.7916,0.199048
1084.6553,0.196554
1086.5190,0.194249
1088.3826,0.192768
1090.2463,0.192066
1092.1100,0.191959
1093.9737,0.192330
1095.8373,0.192626
1097.7010,0.192526
1099.5647,0.191937
1101.4283,0.191002
1103.2920,0.190074
1105.1557,0.189271
1107.0193,0.188753
1108.8830,0.188266
1110.7467,0.187324
1112.6103,0.185543
1114.4740,0.182520
1116.3377,0.178191
1118.2014,0.172778
1120.0650,0.166724
1121.9287,0.160630
1123.7924,0.154975
1125.6560,0.150127
1127.5197,0.146586
1129.3834,0.144752
1131.2470,0.144945
1133.1107,0.147431
1134.9744,0.152236
1136.8380,0.159020
1138.7017,0.167453
1140.5654,0.176994
1142.4290,0.186166
1144.2927,0.193847
1146.1564,0.199424
1148.0201,0.202883
1149.8837,0.204778
1151.7474,0.205796
1153.6111,0.206370
1155.4747,0.206514
1157.3384,0.206083
1159.2021,0.204861
1161.0657,0.202687
1162.9294,0.199560
1164.7931,0.195642
1166.6567,0.191227
1168.5204,0.186365
1170.3841,0.180837
1172.2477,0.174706
1174.1114,0.168236
1175.9751,0.161904
1177.8388,0.156107
1179.7024,0.151069
1181.5661,0.146884
1183.4298,0.143561
1185.2934,0.141056
1187.1571,0.139011
1189.0208,0.137326
1190.8844,0.136036
1192.7481,0.135137
1194.6118,0.134572
1196.4754,0.134271
1198.3391,0.134477
1200.2028,0.135235
1202.0665,0.136266
1203.9301,0.137515
1205.7938,0.138862
1207.6575,0.140106
1209.5211,0.141290
1211.3848,0.142698
1213.2485,0.144368
1215.1121,0.146226
1216.9758,0.148456
1218.8395,0.151071
1220.7031,0.153753
1222.5668,0.156316
1224.4305,0.158698
1226.2941,0.160630
1228.1578,0.162037
1230.0215,0.163061
1231.8852,0.163575
1233.7488,0.163446
1235.6125,0.162821
1237.4762,0.161743
1239.3398,0.160455
1241.2035,0.159152
1243.0672,0.157844
1244.9308,0.156199
1246.7945,0.153964
1248.6582,0.151328
1250.5218,0.148574
1252.3855,0.146021
1254.2492,0.143845
1256.1129,0.141841
1257.9765,0.139927
1259.8402,0.138030
1261.7039,0.135936
1263.5675,0.133753
1265.4312,0.131860
1267.2949,0.130263
1269.1585,0.129026
1271.0222,0.128075
1272.8859,0.127188
1274.7495,0.126490
1276.6132,0.125943
1278.4769,0.125651
1280.3405,0.125399
1282.2042,0.124974
1284.0679,0.124437
1285.9316,0.123681
1287.7952,0.123097
1289.6589,0.122776
1291.5226,0.122765
1293.3862,0.122962
1295.2499,0.123319
1297.1136,0.123833
1298.9772,0.124220
1300.8409,0.124474
1302.7046,0.124539
1304.5682,0.124470
1306.4319,0.124313
1308.2956,0.124188
1310.1592,0.124128
1312.0229,0.124170
1313.8866,0.123972
1315.7503,0.123377
1317.6139,0.122939
1319.4776,0.122145
1321.3413,0.120620
1323.2049,0.118938
1325.0686,0.117333
1326.9323,0.116049
1328.7959,0.115350
1330.6596,0.115072
1332.5233,0.115013
1334.3869,0.115060
1336.2506,0.115911
1338.1143,0.118100
1339.9780,0.120207
1341.8416,0.120113
1343.7053,0.119352
1345.5690,0.119286
1347.4326,0.119540
1349.2963,0.119831
1351.1600,0.119999
1353.0236,0.120393
1354.8873,0.120992
1356.7510,0.121116
1358.6146,0.121272
1360.4783,0.123186
1362.3420,0.127265
1364.2056,0.129863
1366.0693,0.130923
1367.9330,0.133145
1369.7967,0.134594
1371.6603,0.136321
1373.5240,0.141408
1375.3877,0.146233
1377.2513,0.147755
1379.1150,0.147674
1380.9787,0.145450
1382.8423,0.142688
1384.7060,0.140747
1386.5697,0.141449
1388.4333,0.141085
1390.2970,0.137815
1392.1607,0.136205
1394.0244,0.137810
1395.8880,0.138723
1397.7517,0.138480
1399.6154,0.138389
1401.4790,0.135521
1403.3427,0.133957
1405.2064,0.133718
1407.0700,0.131756
1408.9337,0.130477
1410.7974,0.130929
1412.6610,0.131137
1414.5247,0.130528
1416.3884,0.130845
1418.2520,0.134116
1420.1157,0.133474
1421.9794,0.128774
1423.8431,0.127493
1425.7067,0.126544
1427.5704,0.126932
1429.4341,0.130892
1431.2977,0.133875
1433.1614,0.135472
1435.0251,0.141878
1436.8887,0.152837
1438.7524,0.154400
1440.6161,0.153930
1442.4797,0.155734
1444.3434,0.156847
1446.2071,0.159315
1448.0707,0.163316
1449.9344,0.164516
1451.7981,0.164346
1453.6618,0.164656
1455.5254,0.169909
1457.3891,0.178540
1459.2528,0.171521
1461.1164,0.163231
1462.9801,0.161100
1464.8438,0.163259
1466.7074,0.157927
1468.5711,0.145903
1470.4348,0.132938
1472.2984,0.121928
1474.1621,0.112351
1476.0258,0.106528
1477.8895,0.102184
1479.7531,0.100127
1481.6168,0.100093
1483.4805,0.099497
1485.3441,0.100384
1487.2078,0.105303
1489.0715,0.113685
1490.9351,0.119223
1492.7988,0.119154
1494.6625,0.123177
1496.5261,0.134136
1498.3898,0.141852
1500.2535,0.143730
1502.1171,0.143100
1503.9808,0.146265
1505.8445,0.164458
1507.7082,0.184471
1509.5718,0.182982
1511.4355,0.184174
1513.2992,0.187466
1515.1628,0.192070
1517.0265,0.197244
1518.8902,0.198205
1520.7538,0.204666
1522.6175,0.209983
1524.4812,0.209693
1526.3448,0.213913
1528.2085,0.215183
1530.0722,0.214612
1531.9359,0.218158
1533.7995,0.223209
1535.6632,0.218159
1537.5269,0.217431
1539.3905,0.227010
1541.2542,0.230083
1543.1179,0.224027
1544.9815,0.218770
1546.8452,0.211400
1548.7089,0.206083
1550.5725,0.199290
1552.4362,0.190982
1554.2999,0.182867
1556.1635,0.175822
1558.0272,0.179120
1559.8909,0.175682
1561.7546,0.161412
1563.6182,0.154383
1565.4819,0.149343
1567.3456,0.145688
1569.2092,0.144847
1571.0729,0.139780
1572.9366,0.134235
1574.8002,0.134663
1576.6639,0.136466
1578.5276,0.132163
1580.3912,0.129176
1582.2549,0.128250
1584.1186,0.128056
1585.9822,0.128359
1587.8459,0.129206
1589.7096,0.130681
1591.5733,0.132748
1593.4369,0.135612
1595.3006,0.138863
1597.1643,0.142016
1599.0279,0.145446
1600.8916,0.149780
1602.7553,0.154908
1604.6189,0.159995
1606.4826,0.166212
1608.3463,0.173931
1610.2099,0.180528
1612.0736,0.185269
1613.9373,0.191524
1615.8010,0.204793
1617.6646,0.215697
1619.5283,0.216486
1621.3920,0.221796
1623.2556,0.232548
1625.1193,0.238134
1626.9830,0.242865
1628.8466,0.246979
1630.7103,0.246521
1632.5740,0.246834
1634.4376,0.254068
1636.3013,0.258643
1638.1650,0.252627
1640.0286,0.247936
1641.8923,0.243973
1643.7560,0.241348
1645.6197,0.243400
1647.4833,0.240291
1649.3470,0.231320
1651.2107,0.231039
1653.0743,0.235156
1654.9380,0.220498
1656.8017,0.208909
1658.6653,0.199841
1660.5290,0.192032
1662.3927,0.184293
1664.2563,0.173666
1666.1200,0.164604
1667.9837,0.158987
1669.8474,0.151872
1671.7110,0.142911
1673.5747,0.136789
1675.4384,0.130927
1677.3020,0.122221
1679.1657,0.115370
1681.0294,0.109253
1682.8930,0.105390
1684.7567,0.099131
1686.6204,0.090340
1688.4840,0.083915
1690.3477,0.077267
1692.2114,0.070442
1694.0750,0.065231
1695.9387,0.059504
1697.8024,0.053521
1699.6661,0.050243
1701.5297,0.045283
1703.3934,0.041174
1705.2571,0.039003
1707.1207,0.036661
1708.9844,0.034604
1710.8481,0.033009
1712.7117,0.032237
1714.5754,0.032751
1716.4391,0.034851
1718.3027,0.037226
1720.1664,0.038216
1722.0301,0.040258
1723.8937,0.044453
1725.7574,0.049633
1727.6211,0.056151
1729.4848,0.065354
1731.3484,0.077081
1733.2121,0.094272
1735.0758,0.114854
1736.9394,0.123312
1738.8031,0.132633
1740.6668,0.143202
1742.5304,0.146209
1744.3941,0.143624
1746.2578,0.136530
1748.1214,0.124616
1749.9851,0.109808
1751.8488,0.092579
1753.7125,0.076752
1755.5761,0.062215
1757.4398,0.048265
1759.3035,0.037239
1761.1671,0.028740
1763.0308,0.021763
1764.8945,0.017206
1766.7581,0.013355
1768.6218,0.010277
1770.4855,0.008164
1772.3491,0.006527
1774.2128,0.005326
1776.0765,0.004464
1777.9401,0.003275
1779.8038,0.002364
1781.6675,0.001945
1783.5312,0.001623
1785.3948,0.000823
1787.2585,0.000373
1789.1222,0.000189
1790.9858,-0.000199
1792.8495,-0.000746
1794.7132,-0.001067
1796.5768,-0.001450
1798.4405,-0.001772
1800.3042,-0.002179
1802.1678,-0.002346
1804.0315,-0.002437
1805.8952,-0.002522
1807.7589,-0.002991
1809.6225,-0.003410
1811.4862,-0.003561
1813.3499,-0.003640
1815.2135,-0.003978
1817.0772,-0.003998
1818.9409,-0.003824
1820.8045,-0.003815
1822.6682,-0.004175
1824.5319,-0.004409
1826.3955,-0.004361
1828.2592,-0.004256
1830.1229,-0.004580
1831.9865,-0.005099
1833.8502,-0.005135
1835.7139,-0.004839
1837.5776,-0.004849
1839.4412,-0.004664
1841.3049,-0.004702
1843.1686,-0.004867
1845.0322,-0.005154
1846.8959,-0.005408
1848.7596,-0.005626
1850.6232,-0.005650
1852.4869,-0.005523
1854.3506,-0.005543
1856.2142,-0.005663
1858.0779,-0.005517
1859.9416,-0.005329
1861.8052,-0.005389
1863.6689,-0.005671
1865.5326,-0.005709
1867.3963,-0.005657
1869.2599,-0.005520
1871.1236,-0.005450
1872.9873,-0.005445
1874.8509,-0.005559
1876.7146,-0.005570
1878.5783,-0.005396
1880.4419,-0.005254
1882.3056,-0.005146
1884.1693,-0.005380
1886.0329,-0.005361
1887.8966,-0.005165
1889.7603,-0.005552
1891.6240,-0.005584
1893.4876,-0.005315
1895.3513,-0.005102
1897.2150,-0.005204
1899.0786,-0.005032
1900.9423,-0.005116
1902.8060,-0.005255
1904.6696,-0.005018
1906.5333,-0.005124
1908.3970,-0.005293
1910.2606,-0.004879
1912.1243,-0.004677
1913.9880,-0.004732
1915.8516,-0.004825
1917.7153,-0.004624
1919.5790,-0.004400
1921.4427,-0.004897
1923.3063,-0.005257
1925.1700,-0.005395
1927.0337,-0.004904
1928.8973,-0.003654
1930.7610,-0.003571
1932.6247,-0.004539
1934.4883,-0.005397
1936.3520,-0.004789
1938.2157,-0.004218
1940.0793,-0.004138
1941.9430,-0.003970
1943.8067,-0.004087
1945.6704,-0.003869
1947.5340,-0.003750
1949.3977,-0.003810
1951.2614,-0.003496
1953.1250,-0.003274
1954.9887,-0.002653
1956.8524,-0.002549
1958.7160,-0.003306
1960.5797,-0.003249
1962.4434,-0.002686
1964.3070,-0.003407
1966.1707,-0.002937
1968.0344,-0.001769
1969.8980,-0.001661
1971.7617,-0.001245
1973.6254,-0.002195
1975.4891,-0.004038
1977.3527,-0.003869
1979.2164,-0.002282
1981.0801,-0.001373
1982.9437,-0.001421
1984.8074,-0.002047
1986.6711,-0.002251
1988.5347,-0.001915
1990.3984,-0.002461
1992.2621,-0.003189
1994.1257,-0.003004
1995.9894,-0.002288
1997.8531,-0.001546
1999.7167,-0.001453
2001.5804,-0.002494
2003.4441,-0.003218
2005.3078,-0.002300
2007.1714,-0.000753
2009.0351,-0.000729
2010.8988,-0.001065
2012.7624,-0.000799
2014.6261,-0.001362
2016.4898,-0.002519
2018.3534,-0.001593
2020.2171,-0.000852
2022.0808,-0.001270
2023.9444,-0.000864
2025.8081,-0.000391
2027.6718,0.000265
2029.5355,0.001203
2031.3991,0.000975
2033.2628,0.001139
2035.1265,0.001580
2036.9901,-0.000247
2038.8538,-0.001260
2040.7175,-0.001260
2042.5811,-0.000304
2044.4448,0.001023
2046.3085,0.000615
2048.1721,-0.000217
2050.0358,-0.000016
2051.8995,-0.000017
2053.7631,-0.000566
2055.6268,-0.000673
2057.4905,0.000417
2059.3542,0.001286
2061.2178,0.000108
2063.0815,-0.000493
2064.9452,0.000019
2066.8088,-0.000242
2068.6725,-0.000668
2070.5362,-0.000846
2072.3998,-0.001200
2074.2635,-0.000802
2076.1272,-0.000400
2077.9908,-0.000600
2079.8545,-0.000668
2081.7182,-0.000638
2083.5819,-0.000969
2085.4455,-0.000942
2087.3092,-0.000508
2089.1729,-0.000870
2091.0365,-0.001588
2092.9002,-0.001667
2094.7639,-0.001400
2096.6275,-0.001285
2098.4912,-0.000697
2100.3549,-0.000182
2102.2185,-0.000447
2104.0822,-0.000800
2105.9459,-0.001033
2107.8095,-0.000526
2109.6732,-0.000127
2111.5369,-0.000378
2113.4006,-0.000261
2115.2642,-0.000256
2117.1279,-0.000489
2118.9916,-0.000951
2120.8552,-0.001280
2122.7189,-0.001357
2124.5826,-0.001296
2126.4462,-0.001035
2128.3099,-0.001832
2130.1736,-0.002937
2132.0372,-0.002479
2133.9009,-0.001503
2135.7646,-0.001169
2137.6282,-0.000840
2139.4919,-0.000710
2141.3556,-0.001535
2143.2193,-0.001671
2145.0829,-0.000397
2146.9466,0.000078
2148.8103,-0.000459
2150.6739,-0.001141
2152.5376,-0.000104
2154.4013,0.002229
2156.2649,0.001973
2158.1286,0.001141
2159.9923,0.002861
2161.8559,0.003888
2163.7196,0.003820
2165.5833,0.003990
2167.4470,0.003290
2169.3106,0.001935
2171.1743,0.000951
2173.0380,0.000961
2174.9016,0.002374
2176.7653,0.003568
2178.6290,0.002468
2180.4926,0.000998
2182.3563,0.001547
2184.2200,0.002489
2186.0836,0.002508
2187.9473,0.002368
2189.8110,0.002584
2191.6746,0.002637
2193.5383,0.002690
2195.4020,0.002634
2197.2657,0.001880
2199.1293,0.001944
2200.9930,0.002070
2202.8567,0.001313
2204.7203,0.001240
2206.5840,0.001103
2208.4477,0.001200
2210.3113,0.001769
2212.1750,0.001449
2214.0387,0.001346
2215.9023,0.001790
2217.7660,0.001768
2219.6297,0.001419
2221.4934,0.000776
2223.3570,0.000241
2225.2207,0.000587
2227.0844,0.001210
2228.9480,0.001653
2230.8117,0.001601
2232.6754,0.001289
2234.5390,0.001113
2236.4027,0.000739
2238.2664,0.000701
2240.1300,0.000896
2241.9937,0.000737
2243.8574,0.001044
2245.7210,0.001309
2247.5847,0.000545
2249.4484,-0.000045
2251.3121,0.000104
2253.1757,0.000783
2255.0394,0.001047
2256.9031,0.000731
2258.7667,0.000508
2260.6304,0.000258
2262.4941,0.000134
2264.3577,-0.000209
2266.2214,-0.000560
2268.0851,-0.000111
2269.9487,0.000655
2271.8124,0.000760
2273.6761,0.000408
2275.5397,-0.000032
2277.4034,-0.000181
2279.2671,0.000129
2281.1308,0.000528
2282.9944,0.000613
2284.8581,0.000690
2286.7218,0.000954
2288.5854,0.000553
2290.4491,-0.000031
2292.3128,-0.000004
2294.1764,0.000125
2296.0401,0.000010
2297.9038,-0.000385
2299.7674,-0.000828
2301.6311,-0.000772
2303.4948,-0.000546
2305.3585,-0.000579
2307.2221,-0.000538
2309.0858,-0.000249
2310.9495,0.000095
2312.8131,0.000466
2314.6768,0.000344
2316.5405,0.000037
2318.4041,0.000190
2320.2678,0.000470
2322.1315,0.000315
2323.9951,0.000106
2325.8588,-0.000072
2327.7225,-0.000678
2329.5861,-0.000892
2331.4498,-0.000696
2333.3135,-0.000700
2335.1772,-0.000927
2337.0408,-0.000703
2338.9045,-0.000051
2340.7682,0.000555
2342.6318,0.000791
2344.4955,0.000124
2346.3592,-0.000515
2348.2228,-0.000813
2350.0865,-0.001231
2351.9502,-0.001750
2353.8138,-0.001497
2355.6775,0.000049
2357.5412,0.001341
2359.4049,0.000587
2361.2685,0.000133
2363.1322,0.001301
2364.9959,0.001656
2366.8595,0.001012
2368.7232,0.001187
2370.5869,0.001260
2372.4505,0.000760
2374.3142,0.000345
2376.1779,0.000153
2378.0415,0.000160
2379.9052,0.000098
2381.7689,-0.000105
2383.6325,-0.000206
2385.4962,-0.000441
2387.3599,-0.000685
2389.2236,-0.000469
2391.0872,-0.000213
2392.9509,-0.000360
2394.8146,-0.000403
2396.6782,0.000052
2398.5419,0.000446
2400.4056,0.000326
2402.2692,0.000186
2404.1329,0.000410
2405.9966,0.000439
2407.8602,0.000391
2409.7239,0.000763
2411.5876,0.000721
2413.4512,0.000603
2415.3149,0.000934
2417.1786,0.001033
2419.0423,0.000634
2420.9059,0.000476
2422.7696,0.001159
2424.6333,0.001616
2426.4969,0.001363
2428.3606,0.001291
2430.2243,0.001561
2432.0879,0.001964
2433.9516,0.001947
2435.8153,0.001744
2437.6789,0.001837
2439.5426,0.001960
2441.4063,0.002129
2443.2700,0.002320
2445.1336,0.002359
2446.9973,0.002517
2448.8610,0.002819
2450.7246,0.002721
2452.5883,0.002436
2454.4520,0.002482
2456.3156,0.002588
2458.1793,0.002849
2460.0430,0.002948
2461.9066,0.002900
2463.7703,0.002943
2465.6340,0.002961
2467.4976,0.002996
2469.3613,0.003068
2471.2250,0.003205
2473.0887,0.003246
2474.9523,0.003100
2476.8160,0.003238
2478.6797,0.003422
2480.5433,0.003542
2482.4070,0.003839
2484.2707,0.004326
2486.1343,0.004404
2487.9980,0.004308
2489.8617,0.004308
2491.7253,0.004293
2493.5890,0.004198
2495.4527,0.004051
2497.3164,0.004227
2499.1800,0.004697
2501.0437,0.004847
2502.9074,0.005004
2504.7710,0.004942
2506.6347,0.004665
2508.4984,0.004651
2510.3620,0.004966
2512.2257,0.005242
2514.0894,0.005262
2515.9530,0.005198
2517.8167,0.005412
2519.6804,0.005433
2521.5440,0.005459
2523.4077,0.005612
2525.2714,0.006040
2527.1351,0.006323
2528.9987,0.006374
2530.8624,0.006387
2532.7261,0.006192
2534.5897,0.006311
2536.4534,0.006489
2538.3171,0.006502
2540.1807,0.006684
2542.0444,0.006589
2543.9081,0.006401
2545.7717,0.006553
2547.6354,0.006830
2549.4991,0.006988
2551.3627,0.006990
2553.2264,0.007210
2555.0901,0.007438
2556.9538,0.007485
2558.8174,0.007754
2560.6811,0.007843
2562.5448,0.007620
2564.4084,0.007730
2566.2721,0.007838
2568.1358,0.007852
2569.9994,0.007919
2571.8631,0.008053
2573.7268,0.008408
2575.5904,0.008497
2577.4541,0.008442
2579.3178,0.008703
2581.1815,0.008993
2583.0451,0.009232
2584.9088,0.009500
2586.7725,0.009516
2588.6361,0.009651
2590.4998,0.009736
2592.3635,0.009710
2594.2271,0.009927
2596.0908,0.010222
2597.9545,0.010620
2599.8181,0.011001
2601.6818,0.011014
2603.5455,0.011122
2605.4091,0.011162
2607.2728,0.011386
2609.1365,0.011603
2611.0002,0.011741
2612.8638,0.011885
2614.7275,0.011949
2616.5912,0.012051
2618.4548,0.012316
2620.3185,0.012576
2622.1822,0.012679
2624.0458,0.012903
2625.9095,0.013243
2627.7732,0.013285
2629.6368,0.013226
2631.5005,0.013582
2633.3642,0.013903
2635.2279,0.013943
2637.0915,0.014132
2638.9552,0.014313
2640.8189,0.014415
2642.6825,0.014521
2644.5462,0.014624
2646.4099,0.014759
2648.2735,0.014944
2650.1372,0.015067
2652.0009,0.015149
2653.8645,0.015282
2655.7282,0.015519
2657.5919,0.015571
2659.4555,0.015471
2661.3192,0.015538
2663.1829,0.015645
2665.0466,0.015757
2666.9102,0.015901
2668.7739,0.016146
2670.6376,0.016227
2672.5012,0.016253
2674.3649,0.016421
2676.2286,0.016561
2678.0922,0.016731
2679.9559,0.016763
2681.8196,0.016778
2683.6832,0.016740
2685.5469,0.016885
2687.4106,0.017191
2689.2742,0.017227
2691.1379,0.017211
2693.0016,0.017175
2694.8653,0.017245
2696.7289,0.017471
2698.5926,0.017595
2700.4563,0.017685
2702.3199,0.017709
2704.1836,0.017855
2706.0473,0.018143
2707.9109,0.018332
2709.7746,0.018488
2711.6383,0.018783
2713.5019,0.019056
2715.3656,0.019364
2717.2293,0.019698
2719.0930,0.019940
2720.9566,0.020149
2722.8203,0.020361
2724.6840,0.020620
2726.5476,0.020914
2728.4113,0.021016
2730.2750,0.021262
2732.1386,0.021586
2734.0023,0.021753
2735.8660,0.021938
2737.7296,0.022129
2739.5933,0.022177
2741.4570,0.022393
2743.3206,0.022722
2745.1843,0.023022
2747.0480,0.023250
2748.9117,0.023443
2750.7753,0.023678
2752.6390,0.023918
2754.5027,0.024109
2756.3663,0.024356
2758.2300,0.024672
2760.0937,0.025155
2761.9573,0.025470
2763.8210,0.025633
2765.6847,0.025917
2767.5483,0.026294
2769.4120,0.026786
2771.2757,0.027180
2773.1394,0.027437
2775.0030,0.027946
2776.8667,0.028353
2778.7304,0.028651
2780.5940,0.029046
2782.4577,0.029537
2784.3214,0.030035
2786.1850,0.030554
2788.0487,0.031025
2789.9124,0.031508
2791.7760,0.032065
2793.6397,0.032616
2795.5034,0.033197
2797.3670,0.033840
2799.2307,0.034424
2801.0944,0.034836
2802.9581,0.035448
2804.8217,0.036240
2806.6854,0.037186
2808.5491,0.038183
2810.4127,0.038999
2812.2764,0.039839
2814.1401,0.040699
2816.0037,0.041703
2817.8674,0.042955
2819.7311,0.044207
2821.5947,0.045665
2823.4584,0.047290
2825.3221,0.048858
2827.1857,0.050514
2829.0494,0.052972
2830.9131,0.055741
2832.7768,0.058695
2834.6404,0.062550
2836.5041,0.067565
2838.3678,0.073904
2840.2314,0.082049
2842.0951,0.092277
2843.9588,0.104673
2845.8224,0.118679
2847.6861,0.132817
2849.5498,0.144206
2851.4134,0.150632
2853.2771,0.150275
2855.1408,0.144262
2857.0045,0.134510
2858.8681,0.123838
2860.7318,0.114064
2862.5955,0.106235
2864.4591,0.100703
2866.3228,0.097819
2868.1865,0.096618
2870.0501,0.096335
2871.9138,0.095442
2873.7775,0.093511
2875.6411,0.090968
2877.5048,0.088673
2879.3685,0.087148
2881.2321,0.087246
2883.0958,0.088636
2884.9595,0.090623
2886.8232,0.093197
2888.6868,0.096597
2890.5505,0.100296
2892.4142,0.104281
2894.2778,0.108191
2896.1415,0.112373
2898.0052,0.116981
2899.8688,0.122207
2901.7325,0.127392
2903.5962,0.133001
2905.4598,0.139496
2907.3235,0.147020
2909.1872,0.155115
2911.0509,0.164645
2912.9145,0.175223
2914.7782,0.186760
2916.6419,0.197808
2918.5055,0.206896
2920.3692,0.211838
2922.2329,0.212484
2924.0965,0.208235
2925.9602,0.200686
2927.8239,0.191201
2929.6875,0.181005
2931.5512,0.169961
2933.4149,0.158959
2935.2785,0.148122
2937.1422,0.138492
2939.0059,0.129917
2940.8696,0.122838
2942.7332,0.117384
2944.5969,0.113787
2946.4606,0.111331
2948.3242,0.110314
2950.1879,0.110597
2952.0516,0.111584
2953.9152,0.111908
2955.7789,0.111320
2957.6426,0.109101
2959.5062,0.105399
2961.3699,0.100831
2963.2336,0.095612
2965.0972,0.090147
2966.9609,0.084900
2968.8246,0.079637
2970.6883,0.074796
2972.5519,0.070872
2974.4156,0.067532
2976.2793,0.064111
2978.1429,0.061376
2980.0066,0.058952
2981.8703,0.056771
2983.7339,0.054706
2985.5976,0.052778
2987.4613,0.051483
2989.3249,0.050450
2991.1886,0.049534
2993.0523,0.048784
2994.9160,0.047940
2996.7796,0.047278
2998.6433,0.046950
3000.5070,0.046857
3002.3706,0.047077
3004.2343,0.047209
3006.0980,0.047393
3007.9616,0.047612
3009.8253,0.047629
3011.6890,0.047425
3013.5526,0.046990
3015.4163,0.046859
3017.2800,0.046845
3019.1436,0.047037
3021.0073,0.047226
3022.8710,0.047545
3024.7347,0.047840
3026.5983,0.048021
3028.4620,0.048313
3030.3257,0.048837
3032.1893,0.049058
3034.0530,0.049271
3035.9167,0.049477
3037.7803,0.049728
3039.6440,0.050361
3041.5077,0.050656
3043.3713,0.050672
3045.2350,0.050966
3047.0987,0.051279
3048.9624,0.051762
3050.8260,0.052255
3052.6897,0.052582
3054.5534,0.052787
3056.4170,0.053207
3058.2807,0.053620
3060.1444,0.053789
3062.0080,0.053737
3063.8717,0.053764
3065.7354,0.054168
3067.5990,0.054340
3069.4627,0.053748
3071.3264,0.053445
3073.1900,0.053551
3075.0537,0.053753
3076.9174,0.053740
3078.7811,0.053875
3080.6447,0.053609
3082.5084,0.053026
3084.3721,0.052663
3086.2357,0.052297
3088.0994,0.052067
3089.9631,0.052063
3091.8267,0.051370
3093.6904,0.050458
3095.5541,0.050580
3097.4177,0.051098
3099.2814,0.050935
3101.1451,0.050608
3103.0087,0.050533
3104.8724,0.050753
3106.7361,0.050725
3108.5998,0.050558
3110.4634,0.050486
3112.3271,0.050808
3114.1908,0.051122
3116.0544,0.051169
3117.9181,0.051013
3119.7818,0.050973
3121.6454,0.050980
3123.5091,0.051014
3125.3728,0.051240
3127.2364,0.051956
3129.1001,0.052495
3130.9638,0.053004
3132.8275,0.053251
3134.6911,0.053338
3136.5548,0.053774
3138.4185,0.054450
3140.2821,0.054864
3142.1458,0.055459
3144.0095,0.056031
3145.8731,0.056576
3147.7368,0.057181
3149.6005,0.057734
3151.4641,0.057841
3153.3278,0.057983
3155.1915,0.058514
3157.0551,0.059439
3158.9188,0.060329
3160.7825,0.060886
3162.6462,0.061074
3164.5098,0.061948
3166.3735,0.062652
3168.2372,0.063401
3170.1008,0.064209
3171.9645,0.064850
3173.8282,0.065375
3175.6918,0.065799
3177.5555,0.066336
3179.4192,0.066884
3181.2828,0.067737
3183.1465,0.068510
3185.0102,0.068645
3186.8739,0.069133
3188.7375,0.069595
3190.6012,0.070347
3192.4649,0.070979
3194.3285,0.071663
3196.1922,0.072158
3198.0559,0.072241
3199.9195,0.072523
3201.7832,0.073189
3203.6469,0.073605
3205.5105,0.073808
3207.3742,0.073813
3209.2379,0.074365
3211.1015,0.074977
3212.9652,0.075114
3214.8289,0.075095
3216.6926,0.075530
3218.5562,0.075711
3220.4199,0.075943
3222.2836,0.076570
3224.1472,0.077193
3226.0109,0.077528
3227.8746,0.077941
3229.7382,0.078296
3231.6019,0.078949
3233.4656,0.078980
3235.3292,0.079284
3237.1929,0.079885
3239.0566,0.080889
3240.9202,0.081513
3242.7839,0.082417
3244.6476,0.083296
3246.5113,0.083890
3248.3749,0.084296
3250.2386,0.084832
3252.1023,0.085568
3253.9659,0.086751
3255.8296,0.087542
3257.6933,0.088225
3259.5569,0.089204
3261.4206,0.089866
3263.2843,0.090174
3265.1479,0.091297
3267.0116,0.091845
3268.8753,0.092690
3270.7390,0.093136
3272.6026,0.092668
3274.4663,0.092344
3276.3300,0.092619
3278.1936,0.092748
3280.0573,0.093011
3281.9210,0.093153
3283.7846,0.093046
3285.6483,0.092038
3287.5120,0.092234
3289.3756,0.092236
3291.2393,0.091848
3293.1030,0.090965
3294.9666,0.090261
3296.8303,0.089485
3298.6940,0.088451
3300.5577,0.087734
3302.4213,0.087428
3304.2850,0.086339
3306.1487,0.085291
3308.0123,0.083911
3309.8760,0.082556
3311.7397,0.081700
3313.6033,0.081143
3315.4670,0.080259
3317.3307,0.079601
3319.1943,0.079134
3321.0580,0.078316
3322.9217,0.076933
3324.7854,0.076221
3326.6490,0.075640
3328.5127,0.074506
3330.3764,0.073522
3332.2400,0.073295
3334.1037,0.073191
3335.9674,0.072501
3337.8310,0.071318
3339.6947,0.070604
3341.5584,0.070365
3343.4220,0.070100
3345.2857,0.069624
3347.1494,0.069225
3349.0130,0.067846
3350.8767,0.066714
3352.7404,0.066324
3354.6041,0.065491
3356.4677,0.064660
3358.3314,0.064464
3360.1951,0.064277
3362.0587,0.064083
3363.9224,0.063495
3365.7861,0.062945
3367.6497,0.062479
3369.5134,0.061704
3371.3771,0.060526
3373.2407,0.060060
3375.1044,0.059426
3376.9681,0.058920
3378.8317,0.058540
3380.6954,0.058124
3382.5591,0.057863
3384.4228,0.057409
3386.2864,0.056636
3388.1501,0.056524
3390.0138,0.056076
3391.8774,0.055381
3393.7411,0.055377
3395.6048,0.055072
3397.4684,0.054489
3399.3321,0.054506
3401.1958,0.054309
3403.0594,0.053744
3404.9231,0.052940
3406.7868,0.052485
3408.6505,0.052313
3410.5141,0.051848
3412.3778,0.051562
3414.2415,0.051573
3416.1051,0.050871
3417.9688,0.050468
3419.8325,0.050588
3421.6961,0.050554
3423.5598,0.049604
3425.4235,0.049014
3427.2871,0.048687
3429.1508,0.048145
3431.0145,0.047690
3432.8781,0.047606
3434.7418,0.047196
3436.6055,0.046899
3438.4692,0.046821
3440.3328,0.046307
3442.1965,0.046167
3444.0602,0.046553
3445.9238,0.046040
3447.7875,0.044679
3449.6512,0.043584
3451.5148,0.043862
3453.3785,0.043820
3455.2422,0.042776
3457.1058,0.042083
3458.9695,0.042114
3460.8332,0.042260
3462.6969,0.042022
3464.5605,0.041022
3466.4242,0.039990
3468.2879,0.039113
3470.1515,0.039048
3472.0152,0.039152
3473.8789,0.038884
3475.7425,0.038222
3477.6062,0.037068
3479.4699,0.035978
3481.3335,0.035645
3483.1972,0.035436
3485.0609,0.035083
3486.9245,0.034376
3488.7882,0.033675
3490.6519,0.033190
3492.5156,0.032210
3494.3792,0.031838
3496.2429,0.032265
3498.1066,0.031634
3499.9702,0.030580
3501.8339,0.029766
3503.6976,0.028712
3505.5612,0.028425
3507.4249,0.028444
3509.2886,0.028162
3511.1522,0.027666
3513.0159,0.027301
3514.8796,0.026964
3516.7432,0.026637
3518.6069,0.026220
3520.4706,0.025142
3522.3343,0.024084
3524.1979,0.023384
3526.0616,0.022926
3527.9253,0.022505
3529.7889,0.021823
3531.6526,0.021242
3533.5163,0.020760
3535.3799,0.020303
3537.2436,0.019903
3539.1073,0.019342
3540.9709,0.018392
3542.8346,0.017416
3544.6983,0.017108
3546.5620,0.016433
3548.4256,0.015929
3550.2893,0.015590
3552.1530,0.014890
3554.0166,0.014579
3555.8803,0.014390
3557.7440,0.013747
3559.6076,0.012819
3561.4713,0.011826
3563.3350,0.011426
3565.1986,0.011543
3567.0623,0.010642
3568.9260,0.009530
3570.7896,0.009777
3572.6533,0.009391
3574.5170,0.008356
3576.3807,0.007817
3578.2443,0.007039
3580.1080,0.006497
3581.9717,0.006088
3583.8353,0.005546
3585.6990,0.005411
3587.5627,0.004576
3589.4263,0.003322
3591.2900,0.002965
3593.1537,0.002909
3595.0173,0.002680
3596.8810,0.002133
3598.7447,0.001848
3600.6084,0.001698
3602.4720,0.000968
3604.3357,0.000067
3606.1994,-0.000295
3608.0630,-0.000959
3609.9267,-0.001871
3611.7904,-0.001933
3613.6540,-0.002048
3615.5177,-0.002842
3617.3814,-0.003525
3619.2450,-0.003847
3621.1087,-0.003943
3622.9724,-0.004197
3624.8360,-0.004406
3626.6997,-0.004737
3628.5634,-0.006016
3630.4271,-0.007340
3632.2907,-0.007221
3634.1544,-0.006982
3636.0181,-0.006997
3637.8817,-0.007017
3639.7454,-0.006983
3641.6091,-0.007359
3643.4727,-0.008024
3645.3364,-0.008428
3647.2001,-0.009233
3649.0637,-0.010373
3650.9274,-0.010991
3652.7911,-0.011016
3654.6547,-0.010515
3656.5184,-0.010518
3658.3821,-0.010928
3660.2458,-0.010876
3662.1094,-0.010979
3663.9731,-0.011377
3665.8368,-0.011435
3667.7004,-0.011281
3669.5641,-0.011521
3671.4278,-0.011693
3673.2914,-0.011769
3675.1551,-0.012470
3677.0188,-0.013065
3678.8824,-0.013045
3680.7461,-0.013053
3682.6098,-0.012874
3684.4735,-0.012654
3686.3371,-0.012660
3688.2008,-0.013191
3690.0645,-0.013720
3691.9281,-0.013425
3693.7918,-0.012934
3695.6555,-0.012893
3697.5191,-0.013401
3699.3828,-0.013410
3701.2465,-0.013009
3703.1101,-0.012782
3704.9738,-0.012709
3706.8375,-0.013019
3708.7011,-0.013208
3710.5648,-0.013298
3712.4285,-0.013750
3714.2922,-0.013812
3716.1558,-0.013074
3718.0195,-0.012416
3719.8832,-0.012694
3721.7468,-0.013414
3723.6105,-0.013257
3725.4742,-0.013043
3727.3378,-0.013412
3729.2015,-0.013089
3731.0652,-0.012452
3732.9288,-0.012945
3734.7925,-0.013963
3736.6562,-0.014322
3738.5199,-0.013625
3740.3835,-0.012903
3742.2472,-0.013121
3744.1109,-0.013636
3745.9745,-0.013795
3747.8382,-0.013755
3749.7019,-0.014181
3751.5655,-0.014345
3753.4292,-0.013873
3755.2929,-0.013499
3757.1565,-0.013183
3759.0202,-0.013267
3760.8839,-0.013327
3762.7475,-0.012905
3764.6112,-0.012716
3766.4749,-0.012907
3768.3386,-0.012755
3770.2022,-0.012539
3772.0659,-0.012722
3773.9296,-0.012780
3775.7932,-0.012688
3777.6569,-0.012784
3779.5206,-0.012606
3781.3842,-0.012372
3783.2479,-0.012300
3785.1116,-0.012553
3786.9752,-0.013085
3788.8389,-0.013025
3790.7026,-0.012410
3792.5662,-0.012162
3794.4299,-0.012023
3796.2936,-0.012421
3798.1573,-0.013029
3800.0209,-0.013236
3801.8846,-0.013410
3803.7483,-0.012999
3805.6119,-0.012573
3807.4756,-0.012842
3809.3393,-0.012794
3811.2029,-0.012280
3813.0666,-0.011884
3814.9303,-0.012171
3816.7939,-0.013055
3818.6576,-0.013018
3820.5213,-0.012552
3822.3850,-0.012956
3824.2486,-0.012814
3826.1123,-0.012726
3827.9760,-0.012934
3829.8396,-0.012704
3831.7033,-0.012661
3833.5670,-0.012708
3835.4306,-0.012710
3837.2943,-0.013376
3839.1580,-0.013643
3841.0216,-0.013160
3842.8853,-0.012481
3844.7490,-0.012275
3846.6126,-0.012164
3848.4763,-0.011742
3850.3400,-0.011578
3852.2037,-0.012197
3854.0673,-0.013342
3855.9310,-0.013802
3857.7947,-0.013135
3859.6583,-0.012784
3861.5220,-0.012425
3863.3857,-0.012335
3865.2493,-0.012298
3867.1130,-0.011901
3868.9767,-0.011870
3870.8403,-0.012321
3872.7040,-0.012316
3874.5677,-0.012591
3876.4314,-0.012703
3878.2950,-0.012194
3880.1587,-0.012161
3882.0224,-0.012264
3883.8860,-0.012156
3885.7497,-0.012340
3887.6134,-0.012084
3889.4770,-0.011780
3891.3407,-0.011798
3893.2044,-0.011953
3895.0680,-0.012073
3896.9317,-0.011939
3898.7954,-0.011646
3900.6590,-0.011852
3902.5227,-0.012195
3904.3864,-0.012516
3906.2501,-0.012392
3908.1137,-0.012040
3909.9774,-0.011655
3911.8411,-0.011350
3913.7047,-0.011451
3915.5684,-0.011722
3917.4321,-0.011732
3919.2957,-0.011880
3921.1594,-0.011983
3923.0231,-0.011548
3924.8867,-0.011354
3926.7504,-0.011782
3928.6141,-0.011789
3930.4777,-0.011701
3932.3414,-0.011702
3934.2051,-0.011806
3936.0688,-0.011823
3937.9324,-0.011599
3939.7961,-0.011057
3941.6598,-0.011037
3943.5234,-0.011399
3945.3871,-0.011298
3947.2508,-0.011126
3949.1144,-0.011344
3950.9781,-0.011401
3952.8418,-0.011616
3954.7054,-0.011768
3956.5691,-0.011499
3958.4328,-0.011244
3960.2965,-0.011341
3962.1601,-0.011052
3964.0238,-0.011204
3965.8875,-0.011398
3967.7511,-0.011524
3969.6148,-0.011356
3971.4785,-0.011061
3973.3421,-0.011115
3975.2058,-0.011204
3977.0695,-0.010966
3978.9331,-0.010827
3980.7968,-0.010997
3982.6605,-0.011109
3984.5241,-0.011074
3986.3878,-0.011385
3988.2515,-0.011430
3990.1152,-0.011410
3991.9788,-0.011340
3993.8425,-0.011330
3995.7062,-0.011314
3997.5698,-0.011210
3999.4335,-0.010813
