Wavenumber,Intensity
650.4205,0.030156
652.2841,0.032602
654.1478,0.031119
656.0115,0.028825
657.8751,0.028581
659.7388,0.028758
661.6025,0.027658
663.4661,0.024768
665.3298,0.024369
667.1935,0.029071
669.0571,0.031185
670.9208,0.027905
672.7845,0.026368
674.6481,0.026114
676.5118,0.025852
678.3755,0.025117
680.2392,0.024348
682.1028,0.023191
683.9665,0.022922
685.8302,0.024069
687.6938,0.024355
689.5575,0.023680
691.4212,0.023658
693.2848,0.023300
695.1485,0.022413
697.0122,0.021665
698.8758,0.022234
700.7395,0.022995
702.6032,0.022087
704.4669,0.021074
706.3305,0.020921
708.1942,0.020064
710.0579,0.019812
711.9215,0.020348
713.7852,0.019389
715.6489,0.018240
717.5125,0.018529
719.3762,0.019050
721.2399,0.018600
723.1035,0.018205
724.9672,0.018110
726.8309,0.017587
728.6945,0.016943
730.5582,0.016748
732.4219,0.017260
734.2856,0.017596
736.1492,0.017311
738.0129,0.016791
739.8766,0.016028
741.7402,0.015918
743.6039,0.016332
745.4676,0.016145
747.3312,0.015768
749.1949,0.015837
751.0586,0.015762
752.9222,0.015533
754.7859,0.015581
756.6496,0.015217
758.5132,0.014670
760.3769,0.014384
762.2406,0.014237
764.1043,0.014675
765.9679,0.014871
767.8316,0.014494
769.6953,0.014370
771.5589,0.014203
773.4226,0.013815
775.2863,0.013500
777.1499,0.013290
779.0136,0.013226
780.8773,0.013320
782.7409,0.013542
784.6046,0.013641
786.4683,0.013321
788.3320,0.012750
790.1956,0.012587
792.0593,0.012675
793.9230,0.012435
795.7866,0.012333
797.6503,0.012442
799.5140,0.012467
801.3776,0.012591
803.2413,0.012323
805.1050,0.011957
806.9686,0.012140
808.8323,0.012346
810.6960,0.012131
812.5596,0.011920
814.4233,0.011883
816.2870,0.012095
818.1507,0.012307
820.0143,0.011975
821.8780,0.011576
823.7417,0.011362
825.6053,0.011180
827.4690,0.011151
829.3327,0.011257
831.1963,0.011413
833.0600,0.011500
834.9237,0.011263
836.7873,0.011014
838.6510,0.011052
840.5147,0.011173
842.3784,0.011248
844.2420,0.011198
846.1057,0.011075
847.9694,0.011090
849.8330,0.011270
851.6967,0.011372
853.5604,0.011443
855.4240,0.011445
857.2877,0.011323
859.1514,0.011465
861.0150,0.011619
862.8787,0.011503
864.7424,0.011530
866.6060,0.011746
868.4697,0.012021
870.3334,0.012210
872.1971,0.012004
874.0607,0.011676
875.9244,0.011734
877.7881,0.011863
879.6517,0.011734
881.5154,0.011581
883.3791,0.011502
885.2427,0.011366
887.1064,0.011229
888.9701,0.011162
890.8337,0.011040
892.6974,0.011066
894.5611,0.011199
896.4247,0.011157
898.2884,0.011039
900.1521,0.010972
902.0158,0.011071
903.8794,0.011015
905.7431,0.010872
907.6068,0.010939
909.4704,0.011068
911.3341,0.011113
913.1978,0.011104
915.0614,0.011132
916.9251,0.011340
918.7888,0.011554
920.6524,0.011652
922.5161,0.011689
924.3798,0.011730
926.2435,0.011673
928.1071,0.011677
929.9708,0.011702
931.8345,0.011596
933.6981,0.011611
935.5618,0.011803
937.4255,0.011933
939.2891,0.011998
941.1528,0.012193
943.0165,0.012466
944.8801,0.012647
946.7438,0.012786
948.6075,0.012950
950.4711,0.013137
952.3348,0.013280
954.1985,0.013495
956.0622,0.013893
957.9258,0.014330
959.7895,0.014737
961.6532,0.015249
963.5168,0.015900
965.3805,0.016480
967.2442,0.016959
969.1078,0.017436
970.9715,0.017747
972.8352,0.017956
974.6988,0.018292
976.5625,0.018727
978.4262,0.019084
980.2899,0.019449
982.1535,0.019872
984.0172,0.020292
985.8809,0.020734
987.7445,0.021164
989.6082,0.021579
991.4719,0.022086
993.3355,0.022695
995.1992,0.023192
997.0629,0.023594
998.9265,0.023993
1000.7902,0.024301
1002.6539,0.024692
1004.5175,0.025162
1006.3812,0.025590
1008.2449,0.026080
1010.1086,0.026675
1011.9722,0.027388
1013.8359,0.028281
1015.6996,0.029141
1017.5632,0.029963
1019.4269,0.030770
1021.2906,0.031566
1023.1542,0.032263
1025.0179,0.032689
1026.8816,0.033015
1028.7452,0.033525
1030.6089,0.033972
1032.4726,0.034159
1034.3362,0.034433
1036.1999,0.034771
1038.0636,0.034981
1039.9273,0.035173
1041.7909,0.035404
1043.6546,0.035519
1045.5183,0.035470
1047.3819,0.035502
1049.2456,0.035615
1051.1093,0.035681
1052.9729,0.035737
1054.8366,0.035887
1056.7003,0.036145
1058.5639,0.036293
1060.4276,0.036481
1062.2913,0.036722
1064.1550,0.036865
1066.0186,0.036961
1067.8823,0.037142
1069.7460,0.037310
1071.6096,0.037344
1073.4733,0.037196
1075.3370,0.036951
1077.2006,0.036528
1079.0643,0.035900
1080.9280,0.035209
1082.7916,0.034458
1084.6553,0.033676
1086.5190,0.032906
1088.3826,0.032109
1090.2463,0.031359
1092.1100,0.030834
1093.9737,0.030280
1095.8373,0.029561
1097.7010,0.028915
1099.5647,0.028433
1101.4283,0.027968
1103.2920,0.027528
1105.1557,0.027130
1107.0193,0.026790
1108.8830,0.026492
1110.7467,0.026199
1112.6103,0.025926
1114.4740,0.025557
1116.3377,0.025164
1118.2014,0.024881
1120.0650,0.024597
1121.9287,0.024262
1123.7924,0.023914
1125.6560,0.023604
1127.5197,0.023168
1129.3834,0.022691
1131.2470,0.022225
1133.1107,0.021684
1134.9744,0.021239
1136.8380,0.020843
1138.7017,0.020296
1140.5654,0.019810
1142.4290,0.019425
1144.2927,0.018975
1146.1564,0.018561
1148.0201,0.018206
1149.8837,0.017960
1151.7474,0.017841
1153.6111,0.017739
1155.4747,0.017511
1157.3384,0.017270
1159.2021,0.017027
1161.0657,0.016713
1162.9294,0.016346
1164.7931,0.015909
1166.6567,0.015404
1168.5204,0.014830
1170.3841,0.014240
1172.2477,0.013649
1174.1114,0.013107
1175.9751,0.012591
1177.8388,0.012141
1179.7024,0.011765
1181.5661,0.011483
1183.4298,0.011352
1185.2934,0.011264
1187.1571,0.011283
1189.0208,0.011380
1190.8844,0.011414
1192.7481,0.011440
1194.6118,0.011616
1196.4754,0.011975
1198.3391,0.012259
1200.2028,0.012525
1202.0665,0.012750
1203.9301,0.012909
1205.7938,0.013022
1207.6575,0.013121
1209.5211,0.013215
1211.3848,0.013304
1213.2485,0.013359
1215.1121,0.013443
1216.9758,0.013574
1218.8395,0.013784
1220.7031,0.014088
1222.5668,0.014446
1224.4305,0.014797
1226.2941,0.015235
1228.1578,0.015714
1230.0215,0.016151
1231.8852,0.016485
1233.7488,0.016843
1235.6125,0.017121
1237.4762,0.017242
1239.3398,0.017437
1241.2035,0.017594
1243.0672,0.017605
1244.9308,0.017436
1246.7945,0.017165
1248.6582,0.016983
1250.5218,0.016755
1252.3855,0.016444
1254.2492,0.016182
1256.1129,0.015953
1257.9765,0.015694
1259.8402,0.015538
1261.7039,0.015425
1263.5675,0.015381
1265.4312,0.015349
1267.2949,0.015265
1269.1585,0.015155
1271.0222,0.015047
1272.8859,0.014983
1274.7495,0.014912
1276.6132,0.014903
1278.4769,0.014867
1280.3405,0.014785
1282.2042,0.014652
1284.0679,0.014559
1285.9316,0.014596
1287.7952,0.014590
1289.6589,0.014528
1291.5226,0.014488
1293.3862,0.014489
1295.2499,0.014644
1297.1136,0.014854
1298.9772,0.015102
1300.8409,0.015340
1302.7046,0.015589
1304.5682,0.015850
1306.4319,0.016111
1308.2956,0.016292
1310.1592,0.016421
1312.0229,0.016612
1313.8866,0.016812
1315.7503,0.016933
1317.6139,0.016841
1319.4776,0.016692
1321.3413,0.016575
1323.2049,0.016554
1325.0686,0.016524
1326.9323,0.016404
1328.7959,0.016330
1330.6596,0.016337
1332.5233,0.016383
1334.3869,0.016445
1336.2506,0.016460
1338.1143,0.016411
1339.9780,0.016437
1341.8416,0.016550
1343.7053,0.016405
1345.5690,0.016188
1347.4326,0.016190
1349.2963,0.016157
1351.1600,0.016054
1353.0236,0.016023
1354.8873,0.015883
1356.7510,0.015815
1358.6146,0.015842
1360.4783,0.015849
1362.3420,0.016007
1364.2056,0.016532
1366.0693,0.016983
1367.9330,0.017379
1369.7967,0.017916
1371.6603,0.018353
1373.5240,0.018772
1375.3877,0.019299
1377.2513,0.019655
1379.1150,0.019934
1380.9787,0.020240
1382.8423,0.020556
1384.7060,0.020826
1386.5697,0.021091
1388.4333,0.021689
1390.2970,0.022133
1392.1607,0.022306
1394.0244,0.022631
1395.8880,0.023254
1397.7517,0.023482
1399.6154,0.023809
1401.4790,0.024046
1403.3427,0.023969
1405.2064,0.023936
1407.0700,0.023862
1408.9337,0.023612
1410.7974,0.023434
1412.6610,0.023052
1414.5247,0.022505
1416.3884,0.022027
1418.2520,0.021503
1420.1157,0.021485
1421.9794,0.021443
1423.8431,0.021277
1425.7067,0.021351
1427.5704,0.021495
1429.4341,0.021883
1431.2977,0.022398
1433.1614,0.022682
1435.0251,0.022795
1436.8887,0.023354
1438.7524,0.024161
1440.6161,0.024342
1442.4797,0.024518
1444.3434,0.024582
1446.2071,0.024422
1448.0707,0.024291
1449.9344,0.024223
1451.7981,0.023812
1453.6618,0.023244
1455.5254,0.022407
1457.3891,0.021597
1459.2528,0.021021
1461.1164,0.020358
1462.9801,0.019501
1464.8438,0.018794
1466.7074,0.018314
1468.5711,0.017643
1470.4348,0.016665
1472.2984,0.015954
1474.1621,0.015686
1476.0258,0.015179
1477.8895,0.014763
1479.7531,0.014584
1481.6168,0.014436
1483.4805,0.014420
1485.3441,0.014483
1487.2078,0.014776
1489.0715,0.015394
1490.9351,0.016406
1492.7988,0.017236
1494.6625,0.017700
1496.5261,0.018903
1498.3898,0.020527
1500.2535,0.021749
1502.1171,0.022509
1503.9808,0.022947
1505.8445,0.024180
1507.7082,0.027249
1509.5718,0.028602
1511.4355,0.029261
1513.2992,0.030290
1515.1628,0.031039
1517.0265,0.031962
1518.8902,0.032747
1520.7538,0.033021
1522.6175,0.033924
1524.4812,0.034297
1526.3448,0.034921
1528.2085,0.035552
1530.0722,0.035859
1531.9359,0.035768
1533.7995,0.036238
1535.6632,0.036694
1537.5269,0.036126
1539.3905,0.036009
1541.2542,0.036593
1543.1179,0.036419
1544.9815,0.036383
1546.8452,0.036099
1548.7089,0.035521
1550.5725,0.035094
1552.4362,0.034411
1554.2999,0.033692
1556.1635,0.032812
1558.0272,0.031511
1559.8909,0.031582
1561.7546,0.031132
1563.6182,0.030109
1565.4819,0.029261
1567.3456,0.028520
1569.2092,0.027740
1571.0729,0.027320
1572.9366,0.026788
1574.8002,0.025964
1576.6639,0.025618
1578.5276,0.025630
1580.3912,0.025335
1582.2549,0.025126
1584.1186,0.024995
1585.9822,0.024975
1587.8459,0.025153
1589.7096,0.025532
1591.5733,0.025926
1593.4369,0.026489
1595.3006,0.027217
1597.1643,0.027853
1599.0279,0.028507
1600.8916,0.029540
1602.7553,0.030666
1604.6189,0.031688
1606.4826,0.032812
1608.3463,0.034080
1610.2099,0.035411
1612.0736,0.036545
1613.9373,0.037296
1615.8010,0.038527
1617.6646,0.040700
1619.5283,0.041686
1621.3920,0.042294
1623.2556,0.043486
1625.1193,0.044745
1626.9830,0.045350
1628.8466,0.046230
1630.7103,0.046926
1632.5740,0.046682
1634.4376,0.046089
1636.3013,0.046837
1638.1650,0.047208
1640.0286,0.046744
1641.8923,0.046351
1643.7560,0.045728
1645.6197,0.044803
1647.4833,0.044107
1649.3470,0.043848
1651.2107,0.042562
1653.0743,0.041213
1654.9380,0.040930
1656.8017,0.040160
1658.6653,0.039132
1660.5290,0.037764
1662.3927,0.036183
1664.2563,0.035241
1666.1200,0.034162
1667.9837,0.032608
1669.8474,0.030822
1671.7110,0.029410
1673.5747,0.027871
1675.4384,0.026062
1677.3020,0.024479
1679.1657,0.022950
1681.0294,0.021131
1682.8930,0.018804
1684.7567,0.016274
1686.6204,0.014811
1688.4840,0.013291
1690.3477,0.011689
1692.2114,0.009863
1694.0750,0.007840
1695.9387,0.005603
1697.8024,0.003800
1699.6661,0.001691
1701.5297,0.000398
1703.3934,-0.000383
1705.2571,-0.001772
1707.1207,-0.002939
1708.9844,-0.003584
1710.8481,-0.004094
1712.7117,-0.004562
1714.5754,-0.005165
1716.4391,-0.005894
1718.3027,-0.006122
1720.1664,-0.005852
1722.0301,-0.006121
1723.8937,-0.006392
1725.7574,-0.006347
1727.6211,-0.006462
1729.4848,-0.006535
1731.3484,-0.006587
1733.2121,-0.007364
1735.0758,-0.007278
1736.9394,-0.006887
1738.8031,-0.007398
1740.6668,-0.007440
1742.5304,-0.007235
1744.3941,-0.007316
1746.2578,-0.007399
1748.1214,-0.007531
1749.9851,-0.007640
1751.8488,-0.007628
1753.7125,-0.007365
1755.5761,-0.007584
1757.4398,-0.007788
1759.3035,-0.007809
1761.1671,-0.007861
1763.0308,-0.007732
1764.8945,-0.007507
1766.7581,-0.007508
1768.6218,-0.007683
1770.4855,-0.008163
1772.3491,-0.008337
1774.2128,-0.008013
1776.0765,-0.007888
1777.9401,-0.007812
1779.8038,-0.007676
1781.6675,-0.007535
1783.5312,-0.007598
1785.3948,-0.007607
1787.2585,-0.007494
1789.1222,-0.007611
1790.9858,-0.007947
1792.8495,-0.008030
1794.7132,-0.007860
1796.5768,-0.007707
1798.4405,-0.007747
1800.3042,-0.007940
1802.1678,-0.007866
1804.0315,-0.007726
1805.8952,-0.007736
1807.7589,-0.007850
1809.6225,-0.007601
1811.4862,-0.007598
1813.3499,-0.007731
1815.2135,-0.007854
1817.0772,-0.007870
1818.9409,-0.007432
1820.8045,-0.007204
1822.6682,-0.007326
1824.5319,-0.007446
1826.3955,-0.007459
1828.2592,-0.007440
1830.1229,-0.007597
1831.9865,-0.007668
1833.8502,-0.007507
1835.7139,-0.007235
1837.5776,-0.007197
1839.4412,-0.007060
1841.3049,-0.006802
1843.1686,-0.006869
1845.0322,-0.007116
1846.8959,-0.007221
1848.7596,-0.007212
1850.6232,-0.007347
1852.4869,-0.007290
1854.3506,-0.006900
1856.2142,-0.006661
1858.0779,-0.006840
1859.9416,-0.007109
1861.8052,-0.006871
1863.6689,-0.006723
1865.5326,-0.006967
1867.3963,-0.007165
1869.2599,-0.006581
1871.1236,-0.006025
1872.9873,-0.006183
1874.8509,-0.006814
1876.7146,-0.007169
1878.5783,-0.006814
1880.4419,-0.006667
1882.3056,-0.006868
1884.1693,-0.006703
1886.0329,-0.006604
1887.8966,-0.006552
1889.7603,-0.006430
1891.6240,-0.006120
1893.4876,-0.005902
1895.3513,-0.005815
1897.2150,-0.006204
1899.0786,-0.006759
1900.9423,-0.006982
1902.8060,-0.006857
1904.6696,-0.006283
1906.5333,-0.005797
1908.3970,-0.005989
1910.2606,-0.006026
1912.1243,-0.005896
1913.9880,-0.006006
1915.8516,-0.006297
1917.7153,-0.006381
1919.5790,-0.006309
1921.4427,-0.006244
1923.3063,-0.005926
1925.1700,-0.005764
1927.0337,-0.006076
1928.8973,-0.006070
1930.7610,-0.005693
1932.6247,-0.005405
1934.4883,-0.005454
1936.3520,-0.005222
1938.2157,-0.004835
1940.0793,-0.004740
1941.9430,-0.004388
1943.8067,-0.004100
1945.6704,-0.004984
1947.5340,-0.005555
1949.3977,-0.004913
1951.2614,-0.004773
1953.1250,-0.004718
1954.9887,-0.004132
1956.8524,-0.004296
1958.7160,-0.004059
1960.5797,-0.002791
1962.4434,-0.001958
1964.3070,-0.002645
1966.1707,-0.002878
1968.0344,-0.002978
1969.8980,-0.003461
1971.7617,-0.003872
1973.6254,-0.003332
1975.4891,-0.001181
1977.3527,-0.000575
1979.2164,-0.001341
1981.0801,-0.001721
1982.9437,-0.001909
1984.8074,-0.002500
1986.6711,-0.001810
1988.5347,-0.000838
1990.3984,-0.001517
1992.2621,-0.001982
1994.1257,-0.002295
1995.9894,-0.003046
1997.8531,-0.003052
1999.7167,-0.002952
2001.5804,-0.002938
2003.4441,-0.002924
2005.3078,-0.003285
2007.1714,-0.002729
2009.0351,-0.001928
2010.8988,-0.001635
2012.7624,-0.001900
2014.6261,-0.001968
2016.4898,-0.001304
2018.3534,-0.000938
2020.2171,-0.001650
2022.0808,-0.001993
2023.9444,-0.001905
2025.8081,-0.000987
2027.6718,0.000107
2029.5355,-0.000347
2031.3991,-0.001306
2033.2628,-0.000558
2035.1265,0.000680
2036.9901,0.000326
2038.8538,-0.000468
2040.7175,-0.000416
2042.5811,-0.000080
2044.4448,0.000376
2046.3085,0.000830
2048.1721,0.001040
2050.0358,0.000130
2051.8995,-0.001127
2053.7631,-0.001259
2055.6268,-0.001655
2057.4905,-0.002353
2059.3542,-0.002124
2061.2178,-0.002070
2063.0815,-0.002224
2064.9452,-0.002011
2066.8088,-0.002211
2068.6725,-0.002458
2070.5362,-0.002413
2072.3998,-0.002434
2074.2635,-0.002411
2076.1272,-0.002382
2077.9908,-0.003010
2079.8545,-0.003514
2081.7182,-0.002788
2083.5819,-0.002661
2085.4455,-0.003880
2087.3092,-0.004517
2089.1729,-0.004404
2091.0365,-0.004445
2092.9002,-0.004775
2094.7639,-0.005040
2096.6275,-0.004877
2098.4912,-0.004549
2100.3549,-0.004276
2102.2185,-0.004163
2104.0822,-0.004497
2105.9459,-0.004897
2107.8095,-0.004447
2109.6732,-0.004446
2111.5369,-0.004884
2113.4006,-0.004655
2115.2642,-0.004480
2117.1279,-0.004683
2118.9916,-0.004660
2120.8552,-0.004507
2122.7189,-0.005198
2124.5826,-0.005888
2126.4462,-0.005425
2128.3099,-0.005365
2130.1736,-0.005610
2132.0372,-0.005509
2133.9009,-0.005832
2135.7646,-0.005382
2137.6282,-0.003844
2139.4919,-0.003295
2141.3556,-0.003821
2143.2193,-0.004246
2145.0829,-0.004181
2146.9466,-0.003949
2148.8103,-0.003355
2150.6739,-0.002874
2152.5376,-0.002554
2154.4013,-0.001696
2156.2649,-0.001674
2158.1286,-0.001396
2159.9923,0.000416
2161.8559,0.000781
2163.7196,-0.000212
2165.5833,-0.000488
2167.4470,-0.000232
2169.3106,0.000651
2171.1743,0.000603
2173.0380,-0.000992
2174.9016,-0.001457
2176.7653,-0.000174
2178.6290,0.000575
2180.4926,-0.001042
2182.3563,-0.002033
2184.2200,-0.000933
2186.0836,-0.000878
2187.9473,-0.001524
2189.8110,-0.001362
2191.6746,-0.001541
2193.5383,-0.002289
2195.4020,-0.002234
2197.2657,-0.001697
2199.1293,-0.001661
2200.9930,-0.002099
2202.8567,-0.002509
2204.7203,-0.001899
2206.5840,-0.001296
2208.4477,-0.002087
2210.3113,-0.002835
2212.1750,-0.002943
2214.0387,-0.002872
2215.9023,-0.002343
2217.7660,-0.001989
2219.6297,-0.002767
2221.4934,-0.003731
2223.3570,-0.003380
2225.2207,-0.002580
2227.0844,-0.002553
2228.9480,-0.002678
2230.8117,-0.002902
2232.6754,-0.003182
2234.5390,-0.002831
2236.4027,-0.002280
2238.2664,-0.002551
2240.1300,-0.003204
2241.9937,-0.003355
2243.8574,-0.003296
2245.7210,-0.003956
2247.5847,-0.004789
2249.4484,-0.004549
2251.3121,-0.003770
2253.1757,-0.004028
2255.0394,-0.004488
2256.9031,-0.003884
2258.7667,-0.003616
2260.6304,-0.003824
2262.4941,-0.003999
2264.3577,-0.004223
2266.2214,-0.004075
2268.0851,-0.003448
2269.9487,-0.003196
2271.8124,-0.003710
2273.6761,-0.004175
2275.5397,-0.004252
2277.4034,-0.004075
2279.2671,-0.003829
2281.1308,-0.003893
2282.9944,-0.004019
2284.8581,-0.004119
2286.7218,-0.004214
2288.5854,-0.004238
2290.4491,-0.004549
2292.3128,-0.004691
2294.1764,-0.004528
2296.0401,-0.004743
2297.9038,-0.005004
2299.7674,-0.005115
2301.6311,-0.005096
2303.4948,-0.004891
2305.3585,-0.004859
2307.2221,-0.005182
2309.0858,-0.005424
2310.9495,-0.005343
2312.8131,-0.005218
2314.6768,-0.005144
2316.5405,-0.004816
2318.4041,-0.004752
2320.2678,-0.005082
2322.1315,-0.004530
2323.9951,-0.003834
2325.8588,-0.004601
2327.7225,-0.005775
2329.5861,-0.006163
2331.4498,-0.006158
2333.3135,-0.006073
2335.1772,-0.005931
2337.0408,-0.005669
2338.9045,-0.005475
2340.7682,-0.005503
2342.6318,-0.005713
2344.4955,-0.005826
2346.3592,-0.005886
2348.2228,-0.006148
2350.0865,-0.006580
2351.9502,-0.006831
2353.8138,-0.006424
2355.6775,-0.005564
2357.5412,-0.005163
2359.4049,-0.006097
2361.2685,-0.006762
2363.1322,-0.006062
2364.9959,-0.005148
2366.8595,-0.005502
2368.7232,-0.005971
2370.5869,-0.005673
2372.4505,-0.005620
2374.3142,-0.005858
2376.1779,-0.006060
2378.0415,-0.006160
2379.9052,-0.006062
2381.7689,-0.005926
2383.6325,-0.005928
2385.4962,-0.005966
2387.3599,-0.006043
2389.2236,-0.006242
2391.0872,-0.006336
2392.9509,-0.006167
2394.8146,-0.006118
2396.6782,-0.006259
2398.5419,-0.006029
2400.4056,-0.005773
2402.2692,-0.005834
2404.1329,-0.005920
2405.9966,-0.005864
2407.8602,-0.005672
2409.7239,-0.005743
2411.5876,-0.005905
2413.4512,-0.005693
2415.3149,-0.005550
2417.1786,-0.005566
2419.0423,-0.005447
2420.9059,-0.005233
2422.7696,-0.005397
2424.6333,-0.005636
2426.4969,-0.005496
2428.3606,-0.005617
2430.2243,-0.005716
2432.0879,-0.005522
2433.9516,-0.005341
2435.8153,-0.005071
2437.6789,-0.004902
2439.5426,-0.004997
2441.4063,-0.004874
2443.2700,-0.004551
2445.1336,-0.004623
2446.9973,-0.004914
2448.8610,-0.004725
2450.7246,-0.004667
2452.5883,-0.004759
2454.4520,-0.004642
2456.3156,-0.004360
2458.1793,-0.004449
2460.0430,-0.004770
2461.9066,-0.004686
2463.7703,-0.004651
2465.6340,-0.004918
2467.4976,-0.004892
2469.3613,-0.004826
2471.2250,-0.005105
2473.0887,-0.004931
2474.9523,-0.004691
2476.8160,-0.004791
2478.6797,-0.005020
2480.5433,-0.004929
2482.4070,-0.004729
2484.2707,-0.004854
2486.1343,-0.004906
2487.9980,-0.004960
2489.8617,-0.004804
2491.7253,-0.004733
2493.5890,-0.004783
2495.4527,-0.004772
2497.3164,-0.004615
2499.1800,-0.004488
2501.0437,-0.004542
2502.9074,-0.004628
2504.7710,-0.004783
2506.6347,-0.004753
2508.4984,-0.004713
2510.3620,-0.004484
2512.2257,-0.004522
2514.0894,-0.004622
2515.9530,-0.004542
2517.8167,-0.004549
2519.6804,-0.004623
2521.5440,-0.004498
2523.4077,-0.004084
2525.2714,-0.004023
2527.1351,-0.004250
2528.9987,-0.004590
2530.8624,-0.004434
2532.7261,-0.004234
2534.5897,-0.004527
2536.4534,-0.004285
2538.3171,-0.003901
2540.1807,-0.003933
2542.0444,-0.004079
2543.9081,-0.004344
2545.7717,-0.004376
2547.6354,-0.004392
2549.4991,-0.004251
2551.3627,-0.003939
2553.2264,-0.003800
2555.0901,-0.003942
2556.9538,-0.004252
2558.8174,-0.004487
2560.6811,-0.004601
2562.5448,-0.004316
2564.4084,-0.004121
2566.2721,-0.004228
2568.1358,-0.004349
2569.9994,-0.004016
2571.8631,-0.003679
2573.7268,-0.003697
2575.5904,-0.004018
2577.4541,-0.004178
2579.3178,-0.004065
2581.1815,-0.004038
2583.0451,-0.004017
2584.9088,-0.003917
2586.7725,-0.003719
2588.6361,-0.003828
2590.4998,-0.003929
2592.3635,-0.003889
2594.2271,-0.003912
2596.0908,-0.003909
2597.9545,-0.003729
2599.8181,-0.003475
2601.6818,-0.003393
2603.5455,-0.003378
2605.4091,-0.003434
2607.2728,-0.003819
2609.1365,-0.003944
2611.0002,-0.003598
2612.8638,-0.003611
2614.7275,-0.003622
2616.5912,-0.003458
2618.4548,-0.003552
2620.3185,-0.003691
2622.1822,-0.003456
2624.0458,-0.003320
2625.9095,-0.003587
2627.7732,-0.003648
2629.6368,-0.003482
2631.5005,-0.003468
2633.3642,-0.003507
2635.2279,-0.003509
2637.0915,-0.003524
2638.9552,-0.003533
2640.8189,-0.003602
2642.6825,-0.003617
2644.5462,-0.003510
2646.4099,-0.003465
2648.2735,-0.003351
2650.1372,-0.003283
2652.0009,-0.003363
2653.8645,-0.003579
2655.7282,-0.003608
2657.5919,-0.003644
2659.4555,-0.003842
2661.3192,-0.003977
2663.1829,-0.003999
2665.0466,-0.003873
2666.9102,-0.003709
2668.7739,-0.003751
2670.6376,-0.003846
2672.5012,-0.003905
2674.3649,-0.003832
2676.2286,-0.003720
2678.0922,-0.003773
2679.9559,-0.003744
2681.8196,-0.003655
2683.6832,-0.003513
2685.5469,-0.003443
2687.4106,-0.003463
2689.2742,-0.003466
2691.1379,-0.003393
2693.0016,-0.003381
2694.8653,-0.003342
2696.7289,-0.003290
2698.5926,-0.003183
2700.4563,-0.003142
2702.3199,-0.003249
2704.1836,-0.003231
2706.0473,-0.003140
2707.9109,-0.002994
2709.7746,-0.002889
2711.6383,-0.003111
2713.5019,-0.003139
2715.3656,-0.002930
2717.2293,-0.002770
2719.0930,-0.002800
2720.9566,-0.002821
2722.8203,-0.002691
2724.6840,-0.002616
2726.5476,-0.002615
2728.4113,-0.002578
2730.2750,-0.002383
2732.1386,-0.002152
2734.0023,-0.002193
2735.8660,-0.002291
2737.7296,-0.002307
2739.5933,-0.002237
2741.4570,-0.002112
2743.3206,-0.002097
2745.1843,-0.002065
2747.0480,-0.002008
2748.9117,-0.001975
2750.7753,-0.001964
2752.6390,-0.001782
2754.5027,-0.001495
2756.3663,-0.001525
2758.2300,-0.001593
2760.0937,-0.001488
2761.9573,-0.001365
2763.8210,-0.001370
2765.6847,-0.001476
2767.5483,-0.001477
2769.4120,-0.001374
2771.2757,-0.001247
2773.1394,-0.000971
2775.0030,-0.000692
2776.8667,-0.000722
2778.7304,-0.000776
2780.5940,-0.000841
2782.4577,-0.000921
2784.3214,-0.001050
2786.1850,-0.000764
2788.0487,-0.000285
2789.9124,-0.000231
2791.7760,-0.000223
2793.6397,-0.000189
2795.5034,-0.000088
2797.3670,-0.000106
2799.2307,-0.000100
2801.0944,-0.000125
2802.9581,-0.000147
2804.8217,-0.000004
2806.6854,0.000145
2808.5491,0.000198
2810.4127,0.000326
2812.2764,0.000569
2814.1401,0.000781
2816.0037,0.000810
2817.8674,0.000709
2819.7311,0.000726
2821.5947,0.000838
2823.4584,0.000738
2825.3221,0.000871
2827.1857,0.000917
2829.0494,0.000913
2830.9131,0.001130
2832.7768,0.001258
2834.6404,0.001558
2836.5041,0.001785
2838.3678,0.001731
2840.2314,0.001598
2842.0951,0.001815
2843.9588,0.002143
2845.8224,0.002513
2847.6861,0.002797
2849.5498,0.002678
2851.4134,0.002649
2853.2771,0.003099
2855.1408,0.003463
2857.0045,0.003480
2858.8681,0.003404
2860.7318,0.003446
2862.5955,0.003358
2864.4591,0.003430
2866.3228,0.003936
2868.1865,0.004337
2870.0501,0.004573
2871.9138,0.004740
2873.7775,0.004891
2875.6411,0.005090
2877.5048,0.005046
2879.3685,0.005021
2881.2321,0.005109
2883.0958,0.005037
2884.9595,0.005130
2886.8232,0.005176
2888.6868,0.005093
2890.5505,0.005121
2892.4142,0.005182
2894.2778,0.005230
2896.1415,0.005153
2898.0052,0.005130
2899.8688,0.005180
2901.7325,0.005360
2903.5962,0.005559
2905.4598,0.005710
2907.3235,0.005950
2909.1872,0.006066
2911.0509,0.006179
2912.9145,0.006497
2914.7782,0.006801
2916.6419,0.006954
2918.5055,0.007198
2920.3692,0.007279
2922.2329,0.007553
2924.0965,0.007827
2925.9602,0.007858
2927.8239,0.007787
2929.6875,0.007811
2931.5512,0.007744
2933.4149,0.007973
2935.2785,0.008291
2937.1422,0.008337
2939.0059,0.007941
2940.8696,0.007667
2942.7332,0.007676
2944.5969,0.007723
2946.4606,0.007531
2948.3242,0.007381
2950.1879,0.007390
2952.0516,0.007667
2953.9152,0.007795
2955.7789,0.007805
2957.6426,0.007929
2959.5062,0.007892
2961.3699,0.007966
2963.2336,0.007785
2965.0972,0.007755
2966.9609,0.007636
2968.8246,0.007296
2970.6883,0.007278
2972.5519,0.007308
2974.4156,0.006922
2976.2793,0.006710
2978.1429,0.006719
2980.0066,0.006272
2981.8703,0.006085
2983.7339,0.006317
2985.5976,0.006272
2987.4613,0.006155
2989.3249,0.006299
2991.1886,0.006079
2993.0523,0.005570
2994.9160,0.005526
2996.7796,0.005624
2998.6433,0.005507
3000.5070,0.005505
3002.3706,0.005582
3004.2343,0.005416
3006.0980,0.005611
3007.9616,0.005922
3009.8253,0.005735
3011.6890,0.005715
3013.5526,0.005875
3015.4163,0.006099
3017.2800,0.006156
3019.1436,0.006115
3021.0073,0.006285
3022.8710,0.006455
3024.7347,0.006532
3026.5983,0.006664
3028.4620,0.006815
3030.3257,0.006805
3032.1893,0.006798
3034.0530,0.006912
3035.9167,0.007173
3037.7803,0.007406
3039.6440,0.007717
3041.5077,0.008010
3043.3713,0.007915
3045.2350,0.007809
3047.0987,0.007797
3048.9624,0.008209
3050.8260,0.008496
3052.6897,0.008401
3054.5534,0.008543
3056.4170,0.008900
3058.2807,0.008854
3060.1444,0.008805
3062.0080,0.008654
3063.8717,0.008561
3065.7354,0.008852
3067.5990,0.009182
3069.4627,0.009055
3071.3264,0.008768
3073.1900,0.008905
3075.0537,0.009451
3076.9174,0.009642
3078.7811,0.009716
3080.6447,0.009780
3082.5084,0.009205
3084.3721,0.008856
3086.2357,0.008936
3088.0994,0.009075
3089.9631,0.009397
3091.8267,0.009514
3093.6904,0.009346
3095.5541,0.009231
3097.4177,0.009510
3099.2814,0.009264
3101.1451,0.009232
3103.0087,0.009543
3104.8724,0.009326
3106.7361,0.009175
3108.5998,0.009254
3110.4634,0.009184
3112.3271,0.009499
3114.1908,0.009933
3116.0544,0.010122
3117.9181,0.010067
3119.7818,0.009875
3121.6454,0.009767
3123.5091,0.010034
3125.3728,0.010187
3127.2364,0.010017
3129.1001,0.009935
3130.9638,0.010171
3132.8275,0.010673
3134.6911,0.011022
3136.5548,0.010933
3138.4185,0.011034
3140.2821,0.011413
3142.1458,0.011535
3144.0095,0.011413
3145.8731,0.011343
3147.7368,0.011732
3149.6005,0.012272
3151.4641,0.012612
3153.3278,0.012970
3155.1915,0.012493
3157.0551,0.012105
3158.9188,0.012474
3160.7825,0.012891
3162.6462,0.013201
3164.5098,0.013217
3166.3735,0.013274
3168.2372,0.013815
3170.1008,0.014309
3171.9645,0.014368
3173.8282,0.014406
3175.6918,0.014563
3177.5555,0.014717
3179.4192,0.014744
3181.2828,0.015004
3183.1465,0.015359
3185.0102,0.015519
3186.8739,0.015285
3188.7375,0.015351
3190.6012,0.015565
3192.4649,0.015557
3194.3285,0.015841
3196.1922,0.016046
3198.0559,0.016050
3199.9195,0.016274
3201.7832,0.016370
3203.6469,0.016564
3205.5105,0.016719
3207.3742,0.016542
3209.2379,0.016545
3211.1015,0.016792
3212.9652,0.016891
3214.8289,0.016828
3216.6926,0.016843
3218.5562,0.017150
3220.4199,0.017364
3222.2836,0.017241
3224.1472,0.017206
3226.0109,0.017245
3227.8746,0.017243
3229.7382,0.017300
3231.6019,0.017551
3233.4656,0.017521
3235.3292,0.017511
3237.1929,0.017590
3239.0566,0.017415
3240.9202,0.017452
3242.7839,0.017771
3244.6476,0.018040
3246.5113,0.018213
3248.3749,0.018244
3250.2386,0.018685
3252.1023,0.018920
3253.9659,0.018849
3255.8296,0.018825
3257.6933,0.018760
3259.5569,0.018812
3261.4206,0.018899
3263.2843,0.019040
3265.1479,0.019332
3267.0116,0.019530
3268.8753,0.019458
3270.7390,0.019277
3272.6026,0.019097
3274.4663,0.019308
3276.3300,0.019654
3278.1936,0.019491
3280.0573,0.019315
3281.9210,0.019084
3283.7846,0.018596
3285.6483,0.018361
3287.5120,0.018830
3289.3756,0.019800
3291.2393,0.020365
3293.1030,0.019988
3294.9666,0.018950
3296.8303,0.018354
3298.6940,0.018592
3300.5577,0.018600
3302.4213,0.018248
3304.2850,0.018071
3306.1487,0.018232
3308.0123,0.017922
3309.8760,0.017578
3311.7397,0.017423
3313.6033,0.017487
3315.4670,0.017474
3317.3307,0.017329
3319.1943,0.017245
3321.0580,0.017065
3322.9217,0.017058
3324.7854,0.016758
3326.6490,0.016145
3328.5127,0.016006
3330.3764,0.016483
3332.2400,0.016623
3334.1037,0.016142
3335.9674,0.015840
3337.8310,0.015580
3339.6947,0.015352
3341.5584,0.015255
3343.4220,0.015552
3345.2857,0.015695
3347.1494,0.015308
3349.0130,0.014936
3350.8767,0.014646
3352.7404,0.014589
3354.6041,0.014720
3356.4677,0.014923
3358.3314,0.014569
3360.1951,0.014012
3362.0587,0.014254
3363.9224,0.014243
3365.7861,0.013836
3367.6497,0.013611
3369.5134,0.013693
3371.3771,0.013469
3373.2407,0.013192
3375.1044,0.013404
3376.9681,0.013587
3378.8317,0.013351
3380.6954,0.012908
3382.5591,0.012914
3384.4228,0.012762
3386.2864,0.012293
3388.1501,0.012122
3390.0138,0.011987
3391.8774,0.012046
3393.7411,0.011906
3395.6048,0.011657
3397.4684,0.011646
3399.3321,0.011431
3401.1958,0.011173
3403.0594,0.011039
3404.9231,0.011000
3406.7868,0.010694
3408.6505,0.010540
3410.5141,0.011023
3412.3778,0.011458
3414.2415,0.011198
3416.1051,0.010463
3417.9688,0.010244
3419.8325,0.009833
3421.6961,0.009361
3423.5598,0.009400
3425.4235,0.009288
3427.2871,0.008844
3429.1508,0.008350
3431.0145,0.008610
3432.8781,0.009123
3434.7418,0.008886
3436.6055,0.008446
3438.4692,0.008037
3440.3328,0.007708
3442.1965,0.007885
3444.0602,0.008315
3445.9238,0.008000
3447.7875,0.006940
3449.6512,0.006478
3451.5148,0.006575
3453.3785,0.006557
3455.2422,0.006182
3457.1058,0.006155
3458.9695,0.006285
3460.8332,0.006006
3462.6969,0.005840
3464.5605,0.005729
3466.4242,0.005478
3468.2879,0.005586
3470.1515,0.005504
3472.0152,0.004940
3473.8789,0.004155
3475.7425,0.003834
3477.6062,0.003742
3479.4699,0.003558
3481.3335,0.003380
3483.1972,0.003380
3485.0609,0.003137
3486.9245,0.002400
3488.7882,0.001881
3490.6519,0.001805
3492.5156,0.002029
3494.3792,0.002157
3496.2429,0.002041
3498.1066,0.002109
3499.9702,0.001857
3501.8339,0.001540
3503.6976,0.001367
3505.5612,0.000978
3507.4249,0.000518
3509.2886,0.000626
3511.1522,0.001020
3513.0159,0.000895
3514.8796,-0.000037
3516.7432,-0.000726
3518.6069,-0.000788
3520.4706,-0.000784
3522.3343,-0.000592
3524.1979,-0.000443
3526.0616,-0.000981
3527.9253,-0.001801
3529.7889,-0.001975
3531.6526,-0.001461
3533.5163,-0.001399
3535.3799,-0.002303
3537.2436,-0.002832
3539.1073,-0.002935
3540.9709,-0.003288
3542.8346,-0.003495
3544.6983,-0.003399
3546.5620,-0.003138
3548.4256,-0.003405
3550.2893,-0.003875
3552.1530,-0.004198
3554.0166,-0.004424
3555.8803,-0.004507
3557.7440,-0.004634
3559.6076,-0.005081
3561.4713,-0.005299
3563.3350,-0.004432
3565.1986,-0.003769
3567.0623,-0.004156
3568.9260,-0.004681
3570.7896,-0.005211
3572.6533,-0.005859
3574.5170,-0.006253
3576.3807,-0.006500
3578.2443,-0.006249
3580.1080,-0.005855
3581.9717,-0.006017
3583.8353,-0.006240
3585.6990,-0.006580
3587.5627,-0.007076
3589.4263,-0.007057
3591.2900,-0.006959
3593.1537,-0.007275
3595.0173,-0.007444
3596.8810,-0.007500
3598.7447,-0.007505
3600.6084,-0.007630
3602.4720,-0.007837
3604.3357,-0.008014
3606.1994,-0.008362
3608.0630,-0.008340
3609.9267,-0.007974
3611.7904,-0.007838
3613.6540,-0.008141
3615.5177,-0.008413
3617.3814,-0.008530
3619.2450,-0.008421
3621.1087,-0.008414
3622.9724,-0.008727
3624.8360,-0.008632
3626.6997,-0.008655
3628.5634,-0.009290
3630.4271,-0.009381
3632.2907,-0.008821
3634.1544,-0.008772
3636.0181,-0.009000
3637.8817,-0.009207
3639.7454,-0.009375
3641.6091,-0.009732
3643.4727,-0.010008
3645.3364,-0.010013
3647.2001,-0.010510
3649.0637,-0.010758
3650.9274,-0.009835
3652.7911,-0.009120
3654.6547,-0.009456
3656.5184,-0.010069
3658.3821,-0.010127
3660.2458,-0.010158
3662.1094,-0.010289
3663.9731,-0.010200
3665.8368,-0.010322
3667.7004,-0.010533
3669.5641,-0.010570
3671.4278,-0.010478
3673.2914,-0.010393
3675.1551,-0.011062
3677.0188,-0.011144
3678.8824,-0.010349
3680.7461,-0.010379
3682.6098,-0.010573
3684.4735,-0.010496
3686.3371,-0.010542
3688.2008,-0.010774
3690.0645,-0.010926
3691.9281,-0.010972
3693.7918,-0.010886
3695.6555,-0.010611
3697.5191,-0.010523
3699.3828,-0.010582
3701.2465,-0.010439
3703.1101,-0.010200
3704.9738,-0.010084
3706.8375,-0.010265
3708.7011,-0.010677
3710.5648,-0.010862
3712.4285,-0.010703
3714.2922,-0.010616
3716.1558,-0.010485
3718.0195,-0.010333
3719.8832,-0.010383
3721.7468,-0.010712
3723.6105,-0.010830
3725.4742,-0.010669
3727.3378,-0.010492
3729.2015,-0.010260
3731.0652,-0.010365
3732.9288,-0.011073
3734.7925,-0.011402
3736.6562,-0.011124
3738.5199,-0.010928
3740.3835,-0.011011
3742.2472,-0.010730
3744.1109,-0.010314
3745.9745,-0.010340
3747.8382,-0.010415
3749.7019,-0.011042
3751.5655,-0.011412
3753.4292,-0.011022
3755.2929,-0.010676
3757.1565,-0.010636
3759.0202,-0.010715
3760.8839,-0.010632
3762.7475,-0.010613
3764.6112,-0.010583
3766.4749,-0.010523
3768.3386,-0.010546
3770.2022,-0.010780
3772.0659,-0.010691
3773.9296,-0.010547
3775.7932,-0.010656
3777.6569,-0.010922
3779.5206,-0.010821
3781.3842,-0.010566
3783.2479,-0.010561
3785.1116,-0.010757
3786.9752,-0.010809
3788.8389,-0.010694
3790.7026,-0.010416
3792.5662,-0.010503
3794.4299,-0.010901
3796.2936,-0.010997
3798.1573,-0.010952
3800.0209,-0.010917
3801.8846,-0.010940
3803.7483,-0.010761
3805.6119,-0.010686
3807.4756,-0.011066
3809.3393,-0.011192
3811.2029,-0.010860
3813.0666,-0.010641
3814.9303,-0.010904
3816.7939,-0.011233
3818.6576,-0.010938
3820.5213,-0.011052
3822.3850,-0.011222
3824.2486,-0.010940
3826.1123,-0.010958
3827.9760,-0.010952
3829.8396,-0.010921
3831.7033,-0.010883
3833.5670,-0.010847
3835.4306,-0.011053
3837.2943,-0.011147
3839.1580,-0.010767
3841.0216,-0.010404
3842.8853,-0.010615
3844.7490,-0.011044
3846.6126,-0.011040
3848.4763,-0.011119
3850.3400,-0.011696
3852.2037,-0.012306
3854.0673,-0.011907
3855.9310,-0.010594
3857.7947,-0.010035
3859.6583,-0.010199
3861.5220,-0.010720
3863.3857,-0.011353
3865.2493,-0.011485
3867.1130,-0.010895
3868.9767,-0.010893
3870.8403,-0.011247
3872.7040,-0.010940
3874.5677,-0.011233
3876.4314,-0.011130
3878.2950,-0.010770
3880.1587,-0.011201
3882.0224,-0.011151
3883.8860,-0.010391
3885.7497,-0.010654
3887.6134,-0.011045
3889.4770,-0.010828
3891.3407,-0.010943
3893.2044,-0.011100
3895.0680,-0.010842
3896.9317,-0.010887
3898.7954,-0.011211
3900.6590,-0.011155
3902.5227,-0.010881
3904.3864,-0.010791
3906.2501,-0.010659
3908.1137,-0.010549
3909.9774,-0.010529
3911.8411,-0.010638
3913.7047,-0.010823
3915.5684,-0.010924
3917.4321,-0.010568
3919.2957,-0.010226
3921.1594,-0.010563
3923.0231,-0.010815
3924.8867,-0.010839
3926.7504,-0.010697
3928.6141,-0.010435
3930.4777,-0.010820
3932.3414,-0.010954
3934.2051,-0.010743
3936.0688,-0.010540
3937.9324,-0.010560
3939.7961,-0.010747
3941.6598,-0.011007
3943.5234,-0.011296
3945.3871,-0.011215
3947.2508,-0.010981
3949.1144,-0.011237
3950.9781,-0.011426
3952.8418,-0.010823
3954.7054,-0.010352
3956.5691,-0.010609
3958.4328,-0.010786
3960.2965,-0.010513
3962.1601,-0.010518
3964.0238,-0.010528
3965.8875,-0.010376
3967.7511,-0.010403
3969.6148,-0.010582
3971.4785,-0.010661
3973.3421,-0.010340
3975.2058,-0.010334
3977.0695,-0.010397
3978.9331,-0.010631
3980.7968,-0.010707
3982.6605,-0.010386
3984.5241,-0.010695
3986.3878,-0.010819
3988.2515,-0.010457
3990.1152,-0.010446
3991.9788,-0.010684
3993.8425,-0.010860
3995.7062,-0.010542
3997.5698,-0.010438
3999.4335,-0.010495
