Wavenumber,Intensity
650.4205,0.144473
652.2841,0.144741
654.1478,0.143614
656.0115,0.143492
657.8751,0.144011
659.7388,0.141920
661.6025,0.140148
663.4661,0.137821
665.3298,0.135173
667.1935,0.138750
669.0571,0.145450
670.9208,0.139822
672.7845,0.136173
674.6481,0.134673
676.5118,0.134934
678.3755,0.135397
680.2392,0.133359
682.1028,0.131569
683.9665,0.132026
685.8302,0.130999
687.6938,0.128832
689.5575,0.127732
691.4212,0.126524
693.2848,0.125335
695.1485,0.125017
697.0122,0.124784
698.8758,0.124478
700.7395,0.123336
702.6032,0.122330
704.4669,0.121175
706.3305,0.119710
708.1942,0.118848
710.0579,0.117386
711.9215,0.114823
713.7852,0.113024
715.6489,0.112224
717.5125,0.111652
719.3762,0.110793
721.2399,0.110133
723.1035,0.109399
724.9672,0.107999
726.8309,0.106397
728.6945,0.105145
730.5582,0.104173
732.4219,0.103190
734.2856,0.102286
736.1492,0.101925
738.0129,0.101862
739.8766,0.101190
741.7402,0.100848
743.6039,0.101124
745.4676,0.100758
747.3312,0.099727
749.1949,0.098892
751.0586,0.098095
752.9222,0.097457
754.7859,0.096907
756.6496,0.096059
758.5132,0.095728
760.3769,0.095943
762.2406,0.096137
764.1043,0.095855
765.9679,0.095005
767.8316,0.094153
769.6953,0.093029
771.5589,0.091674
773.4226,0.091165
775.2863,0.091333
777.1499,0.091360
779.0136,0.091088
780.8773,0.090858
782.7409,0.091231
784.6046,0.091260
786.4683,0.090737
788.3320,0.090873
790.1956,0.091372
792.0593,0.091657
793.9230,0.091641
795.7866,0.091483
797.6503,0.091415
799.5140,0.090837
801.3776,0.090055
803.2413,0.089653
805.1050,0.089113
806.9686,0.087843
808.8323,0.086468
810.6960,0.085573
812.5596,0.085090
814.4233,0.084569
816.2870,0.083795
818.1507,0.082583
820.0143,0.081053
821.8780,0.078953
823.7417,0.076471
825.6053,0.074335
827.4690,0.072322
829.3327,0.070186
831.1963,0.068351
833.0600,0.066863
834.9237,0.065707
836.7873,0.064967
838.6510,0.064148
840.5147,0.062976
842.3784,0.061949
844.2420,0.061205
846.1057,0.060708
847.9694,0.060323
849.8330,0.060104
851.6967,0.060027
853.5604,0.060048
855.4240,0.060082
857.2877,0.060258
859.1514,0.060477
861.0150,0.060615
862.8787,0.060717
864.7424,0.061040
866.6060,0.061392
868.4697,0.061678
870.3334,0.062019
872.1971,0.061987
874.0607,0.061670
875.9244,0.061439
877.7881,0.061045
879.6517,0.060537
881.5154,0.060034
883.3791,0.059591
885.2427,0.059011
887.1064,0.058437
888.9701,0.058321
890.8337,0.058438
892.6974,0.058431
894.5611,0.058343
896.4247,0.058078
898.2884,0.057688
900.1521,0.057350
902.0158,0.056863
903.8794,0.056415
905.7431,0.056190
907.6068,0.056101
909.4704,0.056180
911.3341,0.056456
913.1978,0.057151
915.0614,0.057958
916.9251,0.058374
918.7888,0.058525
920.6524,0.058701
922.5161,0.058854
924.3798,0.058990
926.2435,0.059069
928.1071,0.059256
929.9708,0.059430
931.8345,0.059579
933.6981,0.060067
935.5618,0.060886
937.4255,0.061933
939.2891,0.063066
941.1528,0.064364
943.0165,0.065905
944.8801,0.067158
946.7438,0.068074
948.6075,0.068844
950.4711,0.069218
952.3348,0.069578
954.1985,0.070365
956.0622,0.071660
957.9258,0.073652
959.7895,0.076256
961.6532,0.079228
963.5168,0.082072
965.3805,0.084346
967.2442,0.085721
969.1078,0.086163
970.9715,0.085979
972.8352,0.085631
974.6988,0.085671
976.5625,0.086348
978.4262,0.087499
980.2899,0.089095
982.1535,0.091110
984.0172,0.093101
985.8809,0.094949
987.7445,0.096982
989.6082,0.099160
991.4719,0.101423
993.3355,0.103838
995.1992,0.106394
997.0629,0.108859
998.9265,0.111135
1000.7902,0.113230
1002.6539,0.115405
1004.5175,0.117997
1006.3812,0.121153
1008.2449,0.124917
1010.1086,0.129078
1011.9722,0.133159
1013.8359,0.137079
1015.6996,0.140590
1017.5632,0.143260
1019.4269,0.145000
1021.2906,0.146012
1023.1542,0.146525
1025.0179,0.146907
1026.8816,0.147417
1028.7452,0.147970
1030.6089,0.148211
1032.4726,0.148116
1034.3362,0.147532
1036.1999,0.146520
1038.0636,0.145378
1039.9273,0.144200
1041.7909,0.142825
1043.6546,0.141385
1045.5183,0.140193
1047.3819,0.139323
1049.2456,0.138665
1051.1093,0.138288
1052.9729,0.138176
1054.8366,0.138138
1056.7003,0.138019
1058.5639,0.137976
1060.4276,0.137945
1062.2913,0.137909
1064.1550,0.137968
1066.0186,0.138146
1067.8823,0.138162
1069.7460,0.137972
1071.6096,0.137673
1073.4733,0.137017
1075.3370,0.135583
1077.2006,0.133433
1079.0643,0.130787
1080.9280,0.127616
1082.7916,0.123969
1084.6553,0.120182
1086.5190,0.116541
1088.3826,0.113253
1090.2463,0.110320
1092.1100,0.107855
1093.9737,0.105813
1095.8373,0.103948
1097.7010,0.102153
1099.5647,0.100538
1101.4283,0.099184
1103.2920,0.098056
1105.1557,0.097163
1107.0193,0.096490
1108.8830,0.095875
1110.7467,0.095303
1112.6103,0.094728
1114.4740,0.094046
1116.3377,0.093115
1118.2014,0.091908
1120.0650,0.090516
1121.9287,0.089100
1123.7924,0.087727
1125.6560,0.086374
1127.5197,0.085055
1129.3834,0.083710
1131.2470,0.082258
1133.1107,0.080714
1134.9744,0.079244
1136.8380,0.078004
1138.7017,0.076874
1140.5654,0.075861
1142.4290,0.075210
1144.2927,0.074978
1146.1564,0.074992
1148.0201,0.075219
1149.8837,0.075558
1151.7474,0.075823
1153.6111,0.075982
1155.4747,0.076012
1157.3384,0.075697
1159.2021,0.075143
1161.0657,0.074550
1162.9294,0.073838
1164.7931,0.072842
1166.6567,0.071395
1168.5204,0.069546
1170.3841,0.067397
1172.2477,0.064785
1174.1114,0.061935
1175.9751,0.059241
1177.8388,0.056909
1179.7024,0.055070
1181.5661,0.053866
1183.4298,0.053230
1185.2934,0.053039
1187.1571,0.053220
1189.0208,0.053684
1190.8844,0.054349
1192.7481,0.055195
1194.6118,0.056280
1196.4754,0.057548
1198.3391,0.058983
1200.2028,0.060601
1202.0665,0.062133
1203.9301,0.063539
1205.7938,0.064744
1207.6575,0.065776
1209.5211,0.066830
1211.3848,0.067853
1213.2485,0.068911
1215.1121,0.070160
1216.9758,0.071492
1218.8395,0.072811
1220.7031,0.074099
1222.5668,0.075369
1224.4305,0.076587
1226.2941,0.077655
1228.1578,0.078547
1230.0215,0.079331
1231.8852,0.079874
1233.7488,0.080256
1235.6125,0.080424
1237.4762,0.080468
1239.3398,0.080400
1241.2035,0.080317
1243.0672,0.080084
1244.9308,0.079609
1246.7945,0.079209
1248.6582,0.079076
1250.5218,0.079248
1252.3855,0.079630
1254.2492,0.080284
1256.1129,0.081071
1257.9765,0.081558
1259.8402,0.081376
1261.7039,0.080300
1263.5675,0.078354
1265.4312,0.075785
1267.2949,0.073218
1269.1585,0.071200
1271.0222,0.070008
1272.8859,0.069333
1274.7495,0.068592
1276.6132,0.068068
1278.4769,0.067936
1280.3405,0.067799
1282.2042,0.067599
1284.0679,0.067490
1285.9316,0.067542
1287.7952,0.067655
1289.6589,0.067786
1291.5226,0.067936
1293.3862,0.068326
1295.2499,0.068884
1297.1136,0.069548
1298.9772,0.070172
1300.8409,0.070743
1302.7046,0.071335
1304.5682,0.071903
1306.4319,0.072379
1308.2956,0.072784
1310.1592,0.073132
1312.0229,0.073596
1313.8866,0.073764
1315.7503,0.073467
1317.6139,0.073371
1319.4776,0.073282
1321.3413,0.072722
1323.2049,0.072056
1325.0686,0.071493
1326.9323,0.070924
1328.7959,0.070493
1330.6596,0.070337
1332.5233,0.070288
1334.3869,0.070133
1336.2506,0.070291
1338.1143,0.071181
1339.9780,0.072301
1341.8416,0.072418
1343.7053,0.072036
1345.5690,0.071928
1347.4326,0.071899
1349.2963,0.071923
1351.1600,0.071834
1353.0236,0.071871
1354.8873,0.072096
1356.7510,0.072156
1358.6146,0.072195
1360.4783,0.073260
1362.3420,0.075908
1364.2056,0.077806
1366.0693,0.078648
1367.9330,0.080383
1369.7967,0.081812
1371.6603,0.082632
1373.5240,0.084854
1375.3877,0.086717
1377.2513,0.086524
1379.1150,0.086450
1380.9787,0.086139
1382.8423,0.085382
1384.7060,0.084810
1386.5697,0.085681
1388.4333,0.086249
1390.2970,0.084688
1392.1607,0.083792
1394.0244,0.084906
1395.8880,0.085926
1397.7517,0.086004
1399.6154,0.086468
1401.4790,0.085169
1403.3427,0.084358
1405.2064,0.084611
1407.0700,0.083707
1408.9337,0.082448
1410.7974,0.081611
1412.6610,0.080559
1414.5247,0.078978
1416.3884,0.078061
1418.2520,0.079502
1420.1157,0.080379
1421.9794,0.078249
1423.8431,0.077680
1425.7067,0.077398
1427.5704,0.077046
1429.4341,0.078229
1431.2977,0.078750
1433.1614,0.078152
1435.0251,0.079478
1436.8887,0.083817
1438.7524,0.083912
1440.6161,0.082448
1442.4797,0.082326
1444.3434,0.082011
1446.2071,0.082323
1448.0707,0.083246
1449.9344,0.082347
1451.7981,0.079993
1453.6618,0.077852
1455.5254,0.078402
1457.3891,0.082524
1459.2528,0.079742
1461.1164,0.075430
1462.9801,0.073610
1464.8438,0.074331
1466.7074,0.072600
1468.5711,0.069046
1470.4348,0.066977
1472.2984,0.067882
1474.1621,0.067599
1476.0258,0.066196
1477.8895,0.065003
1479.7531,0.064501
1481.6168,0.065158
1483.4805,0.065127
1485.3441,0.065698
1487.2078,0.068728
1489.0715,0.073727
1490.9351,0.077271
1492.7988,0.076704
1494.6625,0.078324
1496.5261,0.084810
1498.3898,0.089458
1500.2535,0.090205
1502.1171,0.089276
1503.9808,0.089863
1505.8445,0.099845
1507.7082,0.112660
1509.5718,0.111127
1511.4355,0.110834
1513.2992,0.112099
1515.1628,0.113151
1517.0265,0.115534
1518.8902,0.115807
1520.7538,0.118589
1522.6175,0.122357
1524.4812,0.121768
1526.3448,0.123551
1528.2085,0.124297
1530.0722,0.123270
1531.9359,0.123525
1533.7995,0.126384
1535.6632,0.124032
1537.5269,0.120881
1539.3905,0.125126
1541.2542,0.130382
1543.1179,0.128303
1544.9815,0.126020
1546.8452,0.122645
1548.7089,0.119598
1550.5725,0.117505
1552.4362,0.113896
1554.2999,0.110399
1556.1635,0.106961
1558.0272,0.108139
1559.8909,0.111643
1561.7546,0.105273
1563.6182,0.100464
1565.4819,0.097784
1567.3456,0.095384
1569.2092,0.094622
1571.0729,0.092621
1572.9366,0.088756
1574.8002,0.088028
1576.6639,0.089786
1578.5276,0.087900
1580.3912,0.085599
1582.2549,0.084869
1584.1186,0.084714
1585.9822,0.084769
1587.8459,0.084923
1589.7096,0.085688
1591.5733,0.086655
1593.4369,0.087851
1595.3006,0.089349
1597.1643,0.090828
1599.0279,0.092364
1600.8916,0.094508
1602.7553,0.096972
1604.6189,0.099672
1606.4826,0.102607
1608.3463,0.106364
1610.2099,0.109621
1612.0736,0.111845
1613.9373,0.113757
1615.8010,0.119542
1617.6646,0.126511
1619.5283,0.126714
1621.3920,0.127334
1623.2556,0.132280
1625.1193,0.135278
1626.9830,0.136017
1628.8466,0.137537
1630.7103,0.136956
1632.5740,0.135151
1634.4376,0.136156
1636.3013,0.140122
1638.1650,0.138255
1640.0286,0.134455
1641.8923,0.131152
1643.7560,0.127843
1645.6197,0.126619
1647.4833,0.126522
1649.3470,0.121809
1651.2107,0.116933
1653.0743,0.119100
1654.9380,0.117449
1656.8017,0.111279
1658.6653,0.106112
1660.5290,0.101764
1662.3927,0.098453
1664.2563,0.094896
1666.1200,0.090101
1667.9837,0.085936
1669.8474,0.083070
1671.7110,0.079564
1673.5747,0.075385
1675.4384,0.072231
1677.3020,0.068362
1679.1657,0.064370
1681.0294,0.060392
1682.8930,0.056901
1684.7567,0.054616
1686.6204,0.050697
1688.4840,0.046550
1690.3477,0.042609
1692.2114,0.038348
1694.0750,0.034305
1695.9387,0.030613
1697.8024,0.027346
1699.6661,0.024684
1701.5297,0.022240
1703.3934,0.019783
1705.2571,0.017997
1707.1207,0.016203
1708.9844,0.014692
1710.8481,0.013339
1712.7117,0.012371
1714.5754,0.011667
1716.4391,0.011450
1718.3027,0.011261
1720.1664,0.010531
1722.0301,0.009713
1723.8937,0.009358
1725.7574,0.009079
1727.6211,0.008827
1729.4848,0.008690
1731.3484,0.008905
1733.2121,0.009686
1735.0758,0.010907
1736.9394,0.010512
1738.8031,0.010584
1740.6668,0.011214
1742.5304,0.011071
1744.3941,0.010494
1746.2578,0.010049
1748.1214,0.009415
1749.9851,0.008888
1751.8488,0.007859
1753.7125,0.006733
1755.5761,0.005518
1757.4398,0.004448
1759.3035,0.003677
1761.1671,0.003392
1763.0308,0.003241
1764.8945,0.002801
1766.7581,0.002337
1768.6218,0.002306
1770.4855,0.002113
1772.3491,0.002207
1774.2128,0.002307
1776.0765,0.001924
1777.9401,0.001559
1779.8038,0.001533
1781.6675,0.001702
1783.5312,0.001728
1785.3948,0.001563
1787.2585,0.001509
1789.1222,0.001283
1790.9858,0.001184
1792.8495,0.001436
1794.7132,0.001458
1796.5768,0.001302
1798.4405,0.001248
1800.3042,0.001160
1802.1678,0.001188
1804.0315,0.001237
1805.8952,0.001062
1807.7589,0.000776
1809.6225,0.000845
1811.4862,0.000856
1813.3499,0.000591
1815.2135,0.000475
1817.0772,0.000603
1818.9409,0.000670
1820.8045,0.000809
1822.6682,0.000872
1824.5319,0.000864
1826.3955,0.000740
1828.2592,0.000673
1830.1229,0.000930
1831.9865,0.001153
1833.8502,0.001097
1835.7139,0.000772
1837.5776,0.000476
1839.4412,0.000642
1841.3049,0.000687
1843.1686,0.000565
1845.0322,0.000695
1846.8959,0.000893
1848.7596,0.000741
1850.6232,0.000391
1852.4869,0.000309
1854.3506,0.000755
1856.2142,0.001123
1858.0779,0.001072
1859.9416,0.000955
1861.8052,0.001062
1863.6689,0.000892
1865.5326,0.000724
1867.3963,0.000677
1869.2599,0.001035
1871.1236,0.000895
1872.9873,0.000774
1874.8509,0.000886
1876.7146,0.000971
1878.5783,0.000971
1880.4419,0.000779
1882.3056,0.000804
1884.1693,0.001137
1886.0329,0.001090
1887.8966,0.000853
1889.7603,0.000481
1891.6240,0.000979
1893.4876,0.001738
1895.3513,0.001648
1897.2150,0.001539
1899.0786,0.001483
1900.9423,0.001218
1902.8060,0.000929
1904.6696,0.000744
1906.5333,0.001025
1908.3970,0.001033
1910.2606,0.000734
1912.1243,0.001164
1913.9880,0.001552
1915.8516,0.001299
1917.7153,0.001384
1919.5790,0.001392
1921.4427,0.001323
1923.3063,0.001319
1925.1700,0.001092
1927.0337,0.001132
1928.8973,0.001178
1930.7610,0.001284
1932.6247,0.001260
1934.4883,0.001406
1936.3520,0.001726
1938.2157,0.001055
1940.0793,0.001098
1941.9430,0.002112
1943.8067,0.002863
1945.6704,0.002362
1947.5340,0.001578
1949.3977,0.001180
1951.2614,0.001383
1953.1250,0.001487
1954.9887,0.001247
1956.8524,0.000949
1958.7160,0.000655
1960.5797,0.001400
1962.4434,0.002922
1964.3070,0.003203
1966.1707,0.003204
1968.0344,0.002610
1969.8980,0.001313
1971.7617,0.001681
1973.6254,0.003271
1975.4891,0.003528
1977.3527,0.004102
1979.2164,0.005165
1981.0801,0.004621
1982.9437,0.004577
1984.8074,0.004908
1986.6711,0.004344
1988.5347,0.004043
1990.3984,0.003820
1992.2621,0.004357
1994.1257,0.004543
1995.9894,0.003991
1997.8531,0.002661
1999.7167,0.002559
2001.5804,0.003292
2003.4441,0.003109
2005.3078,0.002965
2007.1714,0.002846
2009.0351,0.002665
2010.8988,0.003642
2012.7624,0.004898
2014.6261,0.004734
2016.4898,0.003985
2018.3534,0.003361
2020.2171,0.003828
2022.0808,0.004683
2023.9444,0.004671
2025.8081,0.005449
2027.6718,0.005750
2029.5355,0.004830
2031.3991,0.004568
2033.2628,0.004761
2035.1265,0.005645
2036.9901,0.006095
2038.8538,0.005168
2040.7175,0.005603
2042.5811,0.006259
2044.4448,0.006352
2046.3085,0.006208
2048.1721,0.006410
2050.0358,0.006952
2051.8995,0.005959
2053.7631,0.004891
2055.6268,0.005567
2057.4905,0.006372
2059.3542,0.006069
2061.2178,0.005212
2063.0815,0.004900
2064.9452,0.005711
2066.8088,0.006010
2068.6725,0.005640
2070.5362,0.005598
2072.3998,0.005652
2074.2635,0.005733
2076.1272,0.005731
2077.9908,0.005989
2079.8545,0.005902
2081.7182,0.005893
2083.5819,0.006081
2085.4455,0.005872
2087.3092,0.005719
2089.1729,0.005323
2091.0365,0.005105
2092.9002,0.005508
2094.7639,0.005456
2096.6275,0.005567
2098.4912,0.006225
2100.3549,0.006482
2102.2185,0.006360
2104.0822,0.006299
2105.9459,0.006173
2107.8095,0.006103
2109.6732,0.006244
2111.5369,0.006007
2113.4006,0.005556
2115.2642,0.005852
2117.1279,0.005874
2118.9916,0.004767
2120.8552,0.004005
2122.7189,0.004453
2124.5826,0.004853
2126.4462,0.005247
2128.3099,0.005571
2130.1736,0.004717
2132.0372,0.004027
2133.9009,0.004589
2135.7646,0.005094
2137.6282,0.004693
2139.4919,0.004524
2141.3556,0.004988
2143.2193,0.004871
2145.0829,0.004545
2146.9466,0.004103
2148.8103,0.004086
2150.6739,0.005023
2152.5376,0.004970
2154.4013,0.004114
2156.2649,0.005103
2158.1286,0.006902
2159.9923,0.008883
2161.8559,0.010218
2163.7196,0.009834
2165.5833,0.008562
2167.4470,0.007454
2169.3106,0.007601
2171.1743,0.007837
2173.0380,0.007761
2174.9016,0.007814
2176.7653,0.007407
2178.6290,0.007054
2180.4926,0.007548
2182.3563,0.008750
2184.2200,0.008934
2186.0836,0.007812
2187.9473,0.007867
2189.8110,0.008014
2191.6746,0.007002
2193.5383,0.006792
2195.4020,0.007049
2197.2657,0.007087
2199.1293,0.006751
2200.9930,0.007065
2202.8567,0.007576
2204.7203,0.006897
2206.5840,0.006295
2208.4477,0.006812
2210.3113,0.007878
2212.1750,0.007313
2214.0387,0.006106
2215.9023,0.006679
2217.7660,0.007261
2219.6297,0.007350
2221.4934,0.007307
2223.3570,0.006653
2225.2207,0.006088
2227.0844,0.006147
2228.9480,0.006403
2230.8117,0.006640
2232.6754,0.007044
2234.5390,0.007026
2236.4027,0.006565
2238.2664,0.006755
2240.1300,0.007502
2241.9937,0.007295
2243.8574,0.006508
2245.7210,0.006337
2247.5847,0.006449
2249.4484,0.006330
2251.3121,0.006299
2253.1757,0.006267
2255.0394,0.006263
2256.9031,0.006561
2258.7667,0.006550
2260.6304,0.006415
2262.4941,0.006517
2264.3577,0.006531
2266.2214,0.006523
2268.0851,0.006615
2269.9487,0.006381
2271.8124,0.006146
2273.6761,0.006362
2275.5397,0.006415
2277.4034,0.006450
2279.2671,0.006670
2281.1308,0.007054
2282.9944,0.007439
2284.8581,0.007399
2286.7218,0.007154
2288.5854,0.006755
2290.4491,0.006246
2292.3128,0.005867
2294.1764,0.005686
2296.0401,0.005751
2297.9038,0.005749
2299.7674,0.005716
2301.6311,0.005872
2303.4948,0.005775
2305.3585,0.005352
2307.2221,0.005373
2309.0858,0.005803
2310.9495,0.006018
2312.8131,0.005924
2314.6768,0.005843
2316.5405,0.006122
2318.4041,0.006346
2320.2678,0.006368
2322.1315,0.006670
2323.9951,0.006885
2325.8588,0.006266
2327.7225,0.005269
2329.5861,0.004945
2331.4498,0.005175
2333.3135,0.004986
2335.1772,0.005044
2337.0408,0.005971
2338.9045,0.006450
2340.7682,0.006276
2342.6318,0.006018
2344.4955,0.005801
2346.3592,0.005542
2348.2228,0.005025
2350.0865,0.004338
2351.9502,0.003908
2353.8138,0.004293
2355.6775,0.004995
2357.5412,0.005692
2359.4049,0.006174
2361.2685,0.006347
2363.1322,0.006503
2364.9959,0.006540
2366.8595,0.006706
2368.7232,0.006664
2370.5869,0.006439
2372.4505,0.006295
2374.3142,0.006202
2376.1779,0.006102
2378.0415,0.005732
2379.9052,0.005349
2381.7689,0.005291
2383.6325,0.005098
2385.4962,0.004796
2387.3599,0.004880
2389.2236,0.004885
2391.0872,0.004919
2392.9509,0.005131
2394.8146,0.004997
2396.6782,0.004755
2398.5419,0.004747
2400.4056,0.004883
2402.2692,0.005064
2404.1329,0.005048
2405.9966,0.005064
2407.8602,0.005378
2409.7239,0.005465
2411.5876,0.005239
2413.4512,0.005372
2415.3149,0.005860
2417.1786,0.005665
2419.0423,0.005195
2420.9059,0.005289
2422.7696,0.005570
2424.6333,0.005892
2426.4969,0.006018
2428.3606,0.005806
2430.2243,0.005985
2432.0879,0.006185
2433.9516,0.005773
2435.8153,0.005423
2437.6789,0.005564
2439.5426,0.005913
2441.4063,0.006309
2443.2700,0.006274
2445.1336,0.006144
2446.9973,0.006438
2448.8610,0.006693
2450.7246,0.006683
2452.5883,0.006743
2454.4520,0.006633
2456.3156,0.006681
2458.1793,0.006778
2460.0430,0.006569
2461.9066,0.006498
2463.7703,0.006501
2465.6340,0.006421
2467.4976,0.006555
2469.3613,0.006721
2471.2250,0.006924
2473.0887,0.006888
2474.9523,0.006845
2476.8160,0.007090
2478.6797,0.007112
2480.5433,0.006869
2482.4070,0.006814
2484.2707,0.007026
2486.1343,0.007193
2487.9980,0.007298
2489.8617,0.006960
2491.7253,0.006857
2493.5890,0.007319
2495.4527,0.007473
2497.3164,0.007366
2499.1800,0.007472
2501.0437,0.007572
2502.9074,0.007516
2504.7710,0.007635
2506.6347,0.007884
2508.4984,0.007963
2510.3620,0.007669
2512.2257,0.007452
2514.0894,0.007657
2515.9530,0.007800
2517.8167,0.007714
2519.6804,0.007724
2521.5440,0.008033
2523.4077,0.008180
2525.2714,0.008081
2527.1351,0.008033
2528.9987,0.008278
2530.8624,0.008462
2532.7261,0.008462
2534.5897,0.008320
2536.4534,0.008197
2538.3171,0.008315
2540.1807,0.008356
2542.0444,0.008282
2543.9081,0.008216
2545.7717,0.008378
2547.6354,0.008511
2549.4991,0.008619
2551.3627,0.009003
2553.2264,0.009124
2555.0901,0.008881
2556.9538,0.008706
2558.8174,0.008743
2560.6811,0.009065
2562.5448,0.009238
2564.4084,0.009175
2566.2721,0.009261
2568.1358,0.009412
2569.9994,0.009529
2571.8631,0.009608
2573.7268,0.009717
2575.5904,0.009658
2577.4541,0.009481
2579.3178,0.009666
2581.1815,0.009907
2583.0451,0.009893
2584.9088,0.009859
2586.7725,0.010051
2588.6361,0.010258
2590.4998,0.010300
2592.3635,0.010473
2594.2271,0.010513
2596.0908,0.010590
2597.9545,0.010597
2599.8181,0.010659
2601.6818,0.010923
2603.5455,0.011224
2605.4091,0.011302
2607.2728,0.011474
2609.1365,0.011601
2611.0002,0.011426
2612.8638,0.011551
2614.7275,0.011663
2616.5912,0.011576
2618.4548,0.011628
2620.3185,0.011812
2622.1822,0.011851
2624.0458,0.011990
2625.9095,0.012094
2627.7732,0.012032
2629.6368,0.012156
2631.5005,0.012391
2633.3642,0.012438
2635.2279,0.012508
2637.0915,0.012855
2638.9552,0.012935
2640.8189,0.012917
2642.6825,0.013044
2644.5462,0.013233
2646.4099,0.013221
2648.2735,0.013143
2650.1372,0.013198
2652.0009,0.013363
2653.8645,0.013592
2655.7282,0.013531
2657.5919,0.013402
2659.4555,0.013511
2661.3192,0.013444
2663.1829,0.013294
2665.0466,0.013378
2666.9102,0.013507
2668.7739,0.013541
2670.6376,0.013596
2672.5012,0.013767
2674.3649,0.013903
2676.2286,0.013891
2678.0922,0.013990
2679.9559,0.014137
2681.8196,0.014098
2683.6832,0.014081
2685.5469,0.014270
2687.4106,0.014502
2689.2742,0.014598
2691.1379,0.014607
2693.0016,0.014652
2694.8653,0.014813
2696.7289,0.014987
2698.5926,0.015014
2700.4563,0.014989
2702.3199,0.015129
2704.1836,0.015311
2706.0473,0.015403
2707.9109,0.015371
2709.7746,0.015524
2711.6383,0.015775
2713.5019,0.016022
2715.3656,0.016117
2717.2293,0.016243
2719.0930,0.016330
2720.9566,0.016342
2722.8203,0.016430
2724.6840,0.016683
2726.5476,0.016938
2728.4113,0.016976
2730.2750,0.017148
2732.1386,0.017277
2734.0023,0.017375
2735.8660,0.017526
2737.7296,0.017519
2739.5933,0.017475
2741.4570,0.017672
2743.3206,0.018010
2745.1843,0.018284
2747.0480,0.018297
2748.9117,0.018204
2750.7753,0.018390
2752.6390,0.018559
2754.5027,0.018799
2756.3663,0.018967
2758.2300,0.019076
2760.0937,0.019299
2761.9573,0.019491
2763.8210,0.019613
2765.6847,0.019820
2767.5483,0.020073
2769.4120,0.020235
2771.2757,0.020276
2773.1394,0.020500
2775.0030,0.020795
2776.8667,0.021080
2778.7304,0.021122
2780.5940,0.021245
2782.4577,0.021625
2784.3214,0.021893
2786.1850,0.022153
2788.0487,0.022253
2789.9124,0.022177
2791.7760,0.022317
2793.6397,0.022793
2795.5034,0.023155
2797.3670,0.023226
2799.2307,0.023347
2801.0944,0.023472
2802.9581,0.023828
2804.8217,0.024094
2806.6854,0.024289
2808.5491,0.024747
2810.4127,0.025111
2812.2764,0.025246
2814.1401,0.025310
2816.0037,0.025490
2817.8674,0.025910
2819.7311,0.026125
2821.5947,0.026231
2823.4584,0.026467
2825.3221,0.026923
2827.1857,0.027442
2829.0494,0.027852
2830.9131,0.028281
2832.7768,0.028917
2834.6404,0.029490
2836.5041,0.030007
2838.3678,0.030446
2840.2314,0.031122
2842.0951,0.032004
2843.9588,0.033185
2845.8224,0.034447
2847.6861,0.035601
2849.5498,0.036606
2851.4134,0.037069
2853.2771,0.037172
2855.1408,0.037089
2857.0045,0.036684
2858.8681,0.036035
2860.7318,0.035889
2862.5955,0.036245
2864.4591,0.036701
2866.3228,0.037148
2868.1865,0.037587
2870.0501,0.037925
2871.9138,0.038031
2873.7775,0.038009
2875.6411,0.038054
2877.5048,0.038023
2879.3685,0.037899
2881.2321,0.037912
2883.0958,0.038048
2884.9595,0.038339
2886.8232,0.038695
2888.6868,0.038881
2890.5505,0.039109
2892.4142,0.039707
2894.2778,0.040149
2896.1415,0.040480
2898.0052,0.040682
2899.8688,0.041073
2901.7325,0.041788
2903.5962,0.042467
2905.4598,0.043051
2907.3235,0.043830
2909.1872,0.044652
2911.0509,0.045562
2912.9145,0.046445
2914.7782,0.047395
2916.6419,0.047940
2918.5055,0.048629
2920.3692,0.049270
2922.2329,0.049731
2924.0965,0.049773
2925.9602,0.049494
2927.8239,0.049186
2929.6875,0.048864
2931.5512,0.048178
2933.4149,0.047301
2935.2785,0.046510
2937.1422,0.045819
2939.0059,0.045244
2940.8696,0.044828
2942.7332,0.044293
2944.5969,0.043811
2946.4606,0.043544
2948.3242,0.043714
2950.1879,0.043930
2952.0516,0.044281
2953.9152,0.044683
2955.7789,0.044916
2957.6426,0.045010
2959.5062,0.045334
2961.3699,0.045166
2963.2336,0.044638
2965.0972,0.043735
2966.9609,0.042876
2968.8246,0.042035
2970.6883,0.041082
2972.5519,0.040440
2974.4156,0.039832
2976.2793,0.039044
2978.1429,0.038674
2980.0066,0.038095
2981.8703,0.037199
2983.7339,0.036589
2985.5976,0.036076
2987.4613,0.035881
2989.3249,0.035917
2991.1886,0.035633
2993.0523,0.035413
2994.9160,0.035062
2996.7796,0.034971
2998.6433,0.035211
3000.5070,0.035452
3002.3706,0.035848
3004.2343,0.036126
3006.0980,0.036204
3007.9616,0.036397
3009.8253,0.036569
3011.6890,0.036990
3013.5526,0.037372
3015.4163,0.037362
3017.2800,0.037494
3019.1436,0.037682
3021.0073,0.037960
3022.8710,0.038523
3024.7347,0.038813
3026.5983,0.039324
3028.4620,0.039946
3030.3257,0.040427
3032.1893,0.040829
3034.0530,0.041145
3035.9167,0.041299
3037.7803,0.041940
3039.6440,0.042392
3041.5077,0.042605
3043.3713,0.042947
3045.2350,0.043411
3047.0987,0.043769
3048.9624,0.044061
3050.8260,0.044497
3052.6897,0.044883
3054.5534,0.045189
3056.4170,0.045976
3058.2807,0.046334
3060.1444,0.046449
3062.0080,0.046402
3063.8717,0.046603
3065.7354,0.046906
3067.5990,0.047027
3069.4627,0.047095
3071.3264,0.047483
3073.1900,0.047867
3075.0537,0.048199
3076.9174,0.048086
3078.7811,0.047995
3080.6447,0.048013
3082.5084,0.048015
3084.3721,0.048166
3086.2357,0.048471
3088.0994,0.048450
3089.9631,0.048649
3091.8267,0.048596
3093.6904,0.048483
3095.5541,0.048498
3097.4177,0.048616
3099.2814,0.048624
3101.1451,0.048590
3103.0087,0.048952
3104.8724,0.049403
3106.7361,0.049174
3108.5998,0.049271
3110.4634,0.049758
3112.3271,0.050134
3114.1908,0.050283
3116.0544,0.050592
3117.9181,0.050773
3119.7818,0.050713
3121.6454,0.050612
3123.5091,0.050886
3125.3728,0.051258
3127.2364,0.051855
3129.1001,0.052243
3130.9638,0.052868
3132.8275,0.053476
3134.6911,0.053836
3136.5548,0.054209
3138.4185,0.054627
3140.2821,0.054887
3142.1458,0.055289
3144.0095,0.055690
3145.8731,0.056331
3147.7368,0.056880
3149.6005,0.057664
3151.4641,0.058272
3153.3278,0.058390
3155.1915,0.058392
3157.0551,0.059156
3158.9188,0.059868
3160.7825,0.060557
3162.6462,0.061049
3164.5098,0.060967
3166.3735,0.061410
3168.2372,0.062211
3170.1008,0.062739
3171.9645,0.063242
3173.8282,0.063746
3175.6918,0.064393
3177.5555,0.064916
3179.4192,0.065435
3181.2828,0.065671
3183.1465,0.065865
3185.0102,0.066261
3186.8739,0.067049
3188.7375,0.067411
3190.6012,0.067309
3192.4649,0.067499
3194.3285,0.067928
3196.1922,0.068277
3198.0559,0.068690
3199.9195,0.068891
3201.7832,0.069467
3203.6469,0.069695
3205.5105,0.069873
3207.3742,0.069938
3209.2379,0.070155
3211.1015,0.070550
3212.9652,0.071379
3214.8289,0.071342
3216.6926,0.070911
3218.5562,0.071056
3220.4199,0.071677
3222.2836,0.072051
3224.1472,0.072174
3226.0109,0.072638
3227.8746,0.073134
3229.7382,0.073041
3231.6019,0.073345
3233.4656,0.073538
3235.3292,0.073656
3237.1929,0.074077
3239.0566,0.074515
3240.9202,0.074161
3242.7839,0.074534
3244.6476,0.075218
3246.5113,0.075368
3248.3749,0.075244
3250.2386,0.075411
3252.1023,0.075811
3253.9659,0.076309
3255.8296,0.076724
3257.6933,0.076967
3259.5569,0.076860
3261.4206,0.076895
3263.2843,0.076701
3265.1479,0.076683
3267.0116,0.076911
3268.8753,0.077037
3270.7390,0.077079
3272.6026,0.077105
3274.4663,0.076778
3276.3300,0.076883
3278.1936,0.076810
3280.0573,0.076539
3281.9210,0.076228
3283.7846,0.076592
3285.6483,0.076934
3287.5120,0.076578
3289.3756,0.075629
3291.2393,0.075215
3293.1030,0.074748
3294.9666,0.074174
3296.8303,0.073352
3298.6940,0.073555
3300.5577,0.073772
3302.4213,0.073811
3304.2850,0.072903
3306.1487,0.072313
3308.0123,0.072171
3309.8760,0.071755
3311.7397,0.071001
3313.6033,0.070533
3315.4670,0.070292
3317.3307,0.070096
3319.1943,0.069868
3321.0580,0.069591
3322.9217,0.069200
3324.7854,0.069237
3326.6490,0.068726
3328.5127,0.068271
3330.3764,0.067921
3332.2400,0.067518
3334.1037,0.067370
3335.9674,0.067453
3337.8310,0.067229
3339.6947,0.066915
3341.5584,0.066439
3343.4220,0.065848
3345.2857,0.065654
3347.1494,0.066147
3349.0130,0.065381
3350.8767,0.064529
3352.7404,0.064130
3354.6041,0.064337
3356.4677,0.064793
3358.3314,0.064476
3360.1951,0.063831
3362.0587,0.063524
3363.9224,0.063520
3365.7861,0.063594
3367.6497,0.063060
3369.5134,0.062270
3371.3771,0.061983
3373.2407,0.061973
3375.1044,0.061476
3376.9681,0.061072
3378.8317,0.061371
3380.6954,0.061240
3382.5591,0.060486
3384.4228,0.060278
3386.2864,0.059730
3388.1501,0.059068
3390.0138,0.059032
3391.8774,0.059287
3393.7411,0.059372
3395.6048,0.059051
3397.4684,0.058277
3399.3321,0.057737
3401.1958,0.057795
3403.0594,0.057608
3404.9231,0.056621
3406.7868,0.056156
3408.6505,0.055760
3410.5141,0.055162
3412.3778,0.055009
3414.2415,0.055089
3416.1051,0.054828
3417.9688,0.054329
3419.8325,0.053472
3421.6961,0.053076
3423.5598,0.053153
3425.4235,0.053119
3427.2871,0.052817
3429.1508,0.052671
3431.0145,0.052381
3432.8781,0.051761
3434.7418,0.051375
3436.6055,0.051288
3438.4692,0.051188
3440.3328,0.050890
3442.1965,0.049936
3444.0602,0.049592
3445.9238,0.049277
3447.7875,0.048666
3449.6512,0.048514
3451.5148,0.048355
3453.3785,0.047227
3455.2422,0.046718
3457.1058,0.046849
3458.9695,0.046751
3460.8332,0.045598
3462.6969,0.044596
3464.5605,0.044727
3466.4242,0.044985
3468.2879,0.044474
3470.1515,0.043867
3472.0152,0.043438
3473.8789,0.042986
3475.7425,0.042194
3477.6062,0.041706
3479.4699,0.041173
3481.3335,0.041102
3483.1972,0.040947
3485.0609,0.040112
3486.9245,0.039474
3488.7882,0.038738
3490.6519,0.037782
3492.5156,0.038354
3494.3792,0.038365
3496.2429,0.037365
3498.1066,0.037120
3499.9702,0.036337
3501.8339,0.035153
3503.6976,0.035073
3505.5612,0.034710
3507.4249,0.034368
3509.2886,0.034507
3511.1522,0.034159
3513.0159,0.033278
3514.8796,0.032997
3516.7432,0.032506
3518.6069,0.031809
3520.4706,0.031411
3522.3343,0.030923
3524.1979,0.030531
3526.0616,0.029972
3527.9253,0.029219
3529.7889,0.028537
3531.6526,0.028032
3533.5163,0.028028
3535.3799,0.027262
3537.2436,0.026471
3539.1073,0.026231
3540.9709,0.026283
3542.8346,0.025435
3544.6983,0.023887
3546.5620,0.023742
3548.4256,0.024277
3550.2893,0.023152
3552.1530,0.022192
3554.0166,0.022464
3555.8803,0.022022
3557.7440,0.021028
3559.6076,0.020108
3561.4713,0.019295
3563.3350,0.019206
3565.1986,0.019184
3567.0623,0.019145
3568.9260,0.019430
3570.7896,0.018590
3572.6533,0.017279
3574.5170,0.016903
3576.3807,0.016534
3578.2443,0.015874
3580.1080,0.015549
3581.9717,0.015089
3583.8353,0.014357
3585.6990,0.013336
3587.5627,0.012595
3589.4263,0.012590
3591.2900,0.012718
3593.1537,0.012772
3595.0173,0.012459
3596.8810,0.011614
3598.7447,0.010916
3600.6084,0.010583
3602.4720,0.010051
3604.3357,0.009497
3606.1994,0.008969
3608.0630,0.008293
3609.9267,0.008116
3611.7904,0.007837
3613.6540,0.007273
3615.5177,0.006910
3617.3814,0.006531
3619.2450,0.006423
3621.1087,0.006017
3622.9724,0.005137
3624.8360,0.004724
3626.6997,0.004523
3628.5634,0.004336
3630.4271,0.004393
3632.2907,0.003821
3634.1544,0.003348
3636.0181,0.003004
3637.8817,0.002273
3639.7454,0.002093
3641.6091,0.002018
3643.4727,0.001261
3645.3364,0.000203
3647.2001,-0.000661
3649.0637,-0.000976
3650.9274,-0.000825
3652.7911,-0.000525
3654.6547,-0.000601
3656.5184,-0.001050
3658.3821,-0.001457
3660.2458,-0.001898
3662.1094,-0.002065
3663.9731,-0.002032
3665.8368,-0.002264
3667.7004,-0.002552
3669.5641,-0.003047
3671.4278,-0.003504
3673.2914,-0.003659
3675.1551,-0.004573
3677.0188,-0.005150
3678.8824,-0.004683
3680.7461,-0.004526
3682.6098,-0.004750
3684.4735,-0.004678
3686.3371,-0.004603
3688.2008,-0.005322
3690.0645,-0.005617
3691.9281,-0.004921
3693.7918,-0.004432
3695.6555,-0.004560
3697.5191,-0.005245
3699.3828,-0.005998
3701.2465,-0.006253
3703.1101,-0.005547
3704.9738,-0.004997
3706.8375,-0.005245
3708.7011,-0.005569
3710.5648,-0.005706
3712.4285,-0.005384
3714.2922,-0.005441
3716.1558,-0.005954
3718.0195,-0.005902
3719.8832,-0.005544
3721.7468,-0.005261
3723.6105,-0.005200
3725.4742,-0.005674
3727.3378,-0.006074
3729.2015,-0.006125
3731.0652,-0.006484
3732.9288,-0.006804
3734.7925,-0.006436
3736.6562,-0.005892
3738.5199,-0.005609
3740.3835,-0.005623
3742.2472,-0.005822
3744.1109,-0.006311
3745.9745,-0.006347
3747.8382,-0.006343
3749.7019,-0.006691
3751.5655,-0.006520
3753.4292,-0.005934
3755.2929,-0.005427
3757.1565,-0.005390
3759.0202,-0.005631
3760.8839,-0.005586
3762.7475,-0.005215
3764.6112,-0.005394
3766.4749,-0.005828
3768.3386,-0.005866
3770.2022,-0.005976
3772.0659,-0.006067
3773.9296,-0.005774
3775.7932,-0.005424
3777.6569,-0.005614
3779.5206,-0.005950
3781.3842,-0.005880
3783.2479,-0.005792
3785.1116,-0.005993
3786.9752,-0.005765
3788.8389,-0.005415
3790.7026,-0.005573
3792.5662,-0.005585
3794.4299,-0.005499
3796.2936,-0.005847
3798.1573,-0.006146
3800.0209,-0.006457
3801.8846,-0.006650
3803.7483,-0.005942
3805.6119,-0.005420
3807.4756,-0.005383
3809.3393,-0.005327
3811.2029,-0.005107
3813.0666,-0.005292
3814.9303,-0.005925
3816.7939,-0.006268
3818.6576,-0.006623
3820.5213,-0.006980
3822.3850,-0.006216
3824.2486,-0.005252
3826.1123,-0.005584
3827.9760,-0.006042
3829.8396,-0.005965
3831.7033,-0.005880
3833.5670,-0.005861
3835.4306,-0.005767
3837.2943,-0.005922
3839.1580,-0.005744
3841.0216,-0.005581
3842.8853,-0.005871
3844.7490,-0.005800
3846.6126,-0.005479
3848.4763,-0.005400
3850.3400,-0.005637
3852.2037,-0.006433
3854.0673,-0.006995
3855.9310,-0.006167
3857.7947,-0.005581
3859.6583,-0.005612
3861.5220,-0.005718
3863.3857,-0.006232
3865.2493,-0.006057
3867.1130,-0.005337
3868.9767,-0.005316
3870.8403,-0.005657
3872.7040,-0.005813
3874.5677,-0.005762
3876.4314,-0.005532
3878.2950,-0.005808
3880.1587,-0.006044
3882.0224,-0.005868
3883.8860,-0.005628
3885.7497,-0.005578
3887.6134,-0.005597
3889.4770,-0.005486
3891.3407,-0.005438
3893.2044,-0.005284
3895.0680,-0.005264
3896.9317,-0.005391
3898.7954,-0.005416
3900.6590,-0.005324
3902.5227,-0.005329
3904.3864,-0.005428
3906.2501,-0.005203
3908.1137,-0.005020
3909.9774,-0.005267
3911.8411,-0.005402
3913.7047,-0.005358
3915.5684,-0.005380
3917.4321,-0.005498
3919.2957,-0.005441
3921.1594,-0.005196
3923.0231,-0.005413
3924.8867,-0.005681
3926.7504,-0.005641
3928.6141,-0.005303
3930.4777,-0.005299
3932.3414,-0.005431
3934.2051,-0.005225
3936.0688,-0.005064
3937.9324,-0.005378
3939.7961,-0.005488
3941.6598,-0.005403
3943.5234,-0.005316
3945.3871,-0.005094
3947.2508,-0.004699
3949.1144,-0.004746
3950.9781,-0.005217
3952.8418,-0.005265
3954.7054,-0.005157
3956.5691,-0.005099
3958.4328,-0.005011
3960.2965,-0.005152
3962.1601,-0.005471
3964.0238,-0.005268
3965.8875,-0.004995
3967.7511,-0.004953
3969.6148,-0.004658
3971.4785,-0.004856
3973.3421,-0.005249
3975.2058,-0.005337
3977.0695,-0.005143
3978.9331,-0.004982
3980.7968,-0.005051
3982.6605,-0.005178
3984.5241,-0.005202
3986.3878,-0.005007
3988.2515,-0.004611
3990.1152,-0.004684
3991.9788,-0.004877
3993.8425,-0.005102
3995.7062,-0.005239
3997.5698,-0.005123
3999.4335,-0.005190
