Wavenumber,Intensity
650.4205,0.125869
652.2841,0.125795
654.1478,0.124966
656.0115,0.123963
657.8751,0.123955
659.7388,0.123907
661.6025,0.124377
663.4661,0.122358
665.3298,0.120854
667.1935,0.121668
669.0571,0.122138
670.9208,0.120819
672.7845,0.120703
674.6481,0.120188
676.5118,0.117782
678.3755,0.117106
680.2392,0.118379
682.1028,0.117895
683.9665,0.116101
685.8302,0.114710
687.6938,0.114279
689.5575,0.113816
691.4212,0.113099
693.2848,0.111766
695.1485,0.111542
697.0122,0.111319
698.8758,0.110183
700.7395,0.110192
702.6032,0.110854
704.4669,0.110463
706.3305,0.108660
708.1942,0.106392
710.0579,0.105236
711.9215,0.104983
713.7852,0.104155
715.6489,0.102079
717.5125,0.100610
719.3762,0.100481
721.2399,0.099961
723.1035,0.098939
724.9672,0.098032
726.8309,0.096709
728.6945,0.095388
730.5582,0.095152
732.4219,0.095046
734.2856,0.094371
736.1492,0.094135
738.0129,0.094021
739.8766,0.093494
741.7402,0.092933
743.6039,0.092540
745.4676,0.091668
747.3312,0.090342
749.1949,0.089968
751.0586,0.090025
752.9222,0.089001
754.7859,0.087906
756.6496,0.087723
758.5132,0.087516
760.3769,0.087062
762.2406,0.086701
764.1043,0.086028
765.9679,0.085317
767.8316,0.085507
769.6953,0.085540
771.5589,0.084827
773.4226,0.084531
775.2863,0.084251
777.1499,0.083717
779.0136,0.083163
780.8773,0.082344
782.7409,0.081695
784.6046,0.080802
786.4683,0.079771
788.3320,0.078997
790.1956,0.077531
792.0593,0.075879
793.9230,0.074858
795.7866,0.074035
797.6503,0.073495
799.5140,0.073125
801.3776,0.072378
803.2413,0.071860
805.1050,0.071755
806.9686,0.071021
808.8323,0.070132
810.6960,0.069771
812.5596,0.069536
814.4233,0.069357
816.2870,0.069226
818.1507,0.068612
820.0143,0.067633
821.8780,0.067131
823.7417,0.067030
825.6053,0.066715
827.4690,0.066634
829.3327,0.066610
831.1963,0.066340
833.0600,0.066068
834.9237,0.065819
836.7873,0.065679
838.6510,0.065780
840.5147,0.065767
842.3784,0.065485
844.2420,0.065212
846.1057,0.065213
847.9694,0.065484
849.8330,0.065762
851.6967,0.066020
853.5604,0.066186
855.4240,0.065989
857.2877,0.065779
859.1514,0.065442
861.0150,0.064908
862.8787,0.064564
864.7424,0.064336
866.6060,0.063943
868.4697,0.063699
870.3334,0.063608
872.1971,0.063352
874.0607,0.063059
875.9244,0.062639
877.7881,0.061852
879.6517,0.061170
881.5154,0.060750
883.3791,0.060379
885.2427,0.060029
887.1064,0.059948
888.9701,0.060004
890.8337,0.060047
892.6974,0.060378
894.5611,0.060729
896.4247,0.060905
898.2884,0.061261
900.1521,0.061582
902.0158,0.061773
903.8794,0.061988
905.7431,0.062287
907.6068,0.062577
909.4704,0.063004
911.3341,0.063613
913.1978,0.064482
915.0614,0.065632
916.9251,0.066852
918.7888,0.067775
920.6524,0.068530
922.5161,0.069425
924.3798,0.070173
926.2435,0.070674
928.1071,0.071075
929.9708,0.071178
931.8345,0.071035
933.6981,0.071093
935.5618,0.071165
937.4255,0.071026
939.2891,0.070951
941.1528,0.071121
943.0165,0.071392
944.8801,0.071298
946.7438,0.071022
948.6075,0.070670
950.4711,0.070146
952.3348,0.069697
954.1985,0.069451
956.0622,0.069473
957.9258,0.069755
959.7895,0.070299
961.6532,0.071362
963.5168,0.072806
965.3805,0.074253
967.2442,0.075592
969.1078,0.076831
970.9715,0.077922
972.8352,0.079136
974.6988,0.080638
976.5625,0.082388
978.4262,0.084440
980.2899,0.086884
982.1535,0.089537
984.0172,0.092095
985.8809,0.094604
987.7445,0.096927
989.6082,0.098792
991.4719,0.100369
993.3355,0.101664
995.1992,0.102806
997.0629,0.104163
998.9265,0.105778
1000.7902,0.107665
1002.6539,0.110049
1004.5175,0.112883
1006.3812,0.115960
1008.2449,0.119435
1010.1086,0.123271
1011.9722,0.127204
1013.8359,0.131218
1015.6996,0.135089
1017.5632,0.138658
1019.4269,0.141760
1021.2906,0.144251
1023.1542,0.146169
1025.0179,0.147714
1026.8816,0.149010
1028.7452,0.150119
1030.6089,0.150974
1032.4726,0.151389
1034.3362,0.151380
1036.1999,0.151057
1038.0636,0.150187
1039.9273,0.148749
1041.7909,0.147048
1043.6546,0.145242
1045.5183,0.143348
1047.3819,0.141727
1049.2456,0.140604
1051.1093,0.139690
1052.9729,0.139013
1054.8366,0.138414
1056.7003,0.137727
1058.5639,0.137113
1060.4276,0.136753
1062.2913,0.136700
1064.1550,0.136907
1066.0186,0.137535
1067.8823,0.138339
1069.7460,0.139016
1071.6096,0.139483
1073.4733,0.139203
1075.3370,0.138002
1077.2006,0.136087
1079.0643,0.133307
1080.9280,0.129673
1082.7916,0.125598
1084.6553,0.121478
1086.5190,0.117641
1088.3826,0.114396
1090.2463,0.111749
1092.1100,0.109787
1093.9737,0.108452
1095.8373,0.107552
1097.7010,0.106984
1099.5647,0.106674
1101.4283,0.106418
1103.2920,0.106304
1105.1557,0.106270
1107.0193,0.106250
1108.8830,0.106256
1110.7467,0.106152
1112.6103,0.105894
1114.4740,0.105498
1116.3377,0.104942
1118.2014,0.104227
1120.0650,0.103464
1121.9287,0.102467
1123.7924,0.101169
1125.6560,0.099797
1127.5197,0.098395
1129.3834,0.096827
1131.2470,0.095159
1133.1107,0.093584
1134.9744,0.092175
1136.8380,0.091111
1138.7017,0.090549
1140.5654,0.090285
1142.4290,0.090196
1144.2927,0.090262
1146.1564,0.090318
1148.0201,0.090179
1149.8837,0.089829
1151.7474,0.089138
1153.6111,0.087978
1155.4747,0.086420
1157.3384,0.084635
1159.2021,0.082805
1161.0657,0.080977
1162.9294,0.079059
1164.7931,0.077167
1166.6567,0.075404
1168.5204,0.073652
1170.3841,0.071877
1172.2477,0.070038
1174.1114,0.068138
1175.9751,0.066228
1177.8388,0.064561
1179.7024,0.063138
1181.5661,0.061900
1183.4298,0.060994
1185.2934,0.060434
1187.1571,0.060123
1189.0208,0.060000
1190.8844,0.060061
1192.7481,0.060289
1194.6118,0.060707
1196.4754,0.061125
1198.3391,0.061586
1200.2028,0.062111
1202.0665,0.062594
1203.9301,0.063070
1205.7938,0.063450
1207.6575,0.063729
1209.5211,0.063939
1211.3848,0.064193
1213.2485,0.064553
1215.1121,0.064906
1216.9758,0.065407
1218.8395,0.066201
1220.7031,0.067086
1222.5668,0.067985
1224.4305,0.068918
1226.2941,0.069907
1228.1578,0.070735
1230.0215,0.071463
1231.8852,0.072131
1233.7488,0.072663
1235.6125,0.073139
1237.4762,0.073524
1239.3398,0.073680
1241.2035,0.073647
1243.0672,0.073585
1244.9308,0.073412
1246.7945,0.073119
1248.6582,0.072756
1250.5218,0.072266
1252.3855,0.071824
1254.2492,0.071452
1256.1129,0.070973
1257.9765,0.070440
1259.8402,0.070064
1261.7039,0.069740
1263.5675,0.069381
1265.4312,0.069009
1267.2949,0.068602
1269.1585,0.068225
1271.0222,0.068049
1272.8859,0.067849
1274.7495,0.067529
1276.6132,0.067334
1278.4769,0.067241
1280.3405,0.067128
1282.2042,0.066980
1284.0679,0.066871
1285.9316,0.066824
1287.7952,0.066902
1289.6589,0.067032
1291.5226,0.067186
1293.3862,0.067498
1295.2499,0.068009
1297.1136,0.068668
1298.9772,0.069260
1300.8409,0.069996
1302.7046,0.070856
1304.5682,0.071610
1306.4319,0.072426
1308.2956,0.073169
1310.1592,0.073796
1312.0229,0.074424
1313.8866,0.074813
1315.7503,0.074984
1317.6139,0.075182
1319.4776,0.075102
1321.3413,0.074784
1323.2049,0.074433
1325.0686,0.074084
1326.9323,0.073882
1328.7959,0.073757
1330.6596,0.073730
1332.5233,0.073800
1334.3869,0.073735
1336.2506,0.073852
1338.1143,0.074637
1339.9780,0.075666
1341.8416,0.075822
1343.7053,0.075603
1345.5690,0.075609
1347.4326,0.075732
1349.2963,0.075880
1351.1600,0.075894
1353.0236,0.075955
1354.8873,0.076283
1356.7510,0.076450
1358.6146,0.076435
1360.4783,0.077024
1362.3420,0.078427
1364.2056,0.079140
1366.0693,0.079270
1367.9330,0.079962
1369.7967,0.080492
1371.6603,0.080933
1373.5240,0.082435
1375.3877,0.083696
1377.2513,0.083835
1379.1150,0.084279
1380.9787,0.084777
1382.8423,0.085068
1384.7060,0.085475
1386.5697,0.087027
1388.4333,0.088318
1390.2970,0.087875
1392.1607,0.087833
1394.0244,0.089369
1395.8880,0.090738
1397.7517,0.091132
1399.6154,0.091815
1401.4790,0.091233
1403.3427,0.090905
1405.2064,0.091328
1407.0700,0.090531
1408.9337,0.089408
1410.7974,0.088696
1412.6610,0.087534
1414.5247,0.085941
1416.3884,0.084846
1418.2520,0.085219
1420.1157,0.085011
1421.9794,0.082784
1423.8431,0.081398
1425.7067,0.080296
1427.5704,0.079280
1429.4341,0.079238
1431.2977,0.079087
1433.1614,0.078343
1435.0251,0.079182
1436.8887,0.082261
1438.7524,0.082449
1440.6161,0.081696
1442.4797,0.082148
1444.3434,0.082626
1446.2071,0.083539
1448.0707,0.084689
1449.9344,0.084492
1451.7981,0.083432
1453.6618,0.082433
1455.5254,0.082795
1457.3891,0.084968
1459.2528,0.082132
1461.1164,0.078565
1462.9801,0.076736
1464.8438,0.076276
1466.7074,0.074259
1468.5711,0.071454
1470.4348,0.069466
1472.2984,0.068934
1474.1621,0.067225
1476.0258,0.064609
1477.8895,0.062256
1479.7531,0.060627
1481.6168,0.059583
1483.4805,0.058322
1485.3441,0.057399
1487.2078,0.057948
1489.0715,0.059811
1490.9351,0.060768
1492.7988,0.060191
1494.6625,0.060976
1496.5261,0.064304
1498.3898,0.066798
1500.2535,0.067337
1502.1171,0.067373
1503.9808,0.068521
1505.8445,0.074894
1507.7082,0.083188
1509.5718,0.083906
1511.4355,0.085116
1513.2992,0.087613
1515.1628,0.090344
1517.0265,0.093205
1518.8902,0.094608
1520.7538,0.097568
1522.6175,0.100934
1524.4812,0.101557
1526.3448,0.103878
1528.2085,0.105660
1530.0722,0.106458
1531.9359,0.108442
1533.7995,0.111840
1535.6632,0.111274
1537.5269,0.110614
1539.3905,0.115679
1541.2542,0.120384
1543.1179,0.119636
1544.9815,0.118831
1546.8452,0.117131
1548.7089,0.115749
1550.5725,0.114587
1552.4362,0.112351
1554.2999,0.110212
1556.1635,0.108605
1558.0272,0.110957
1559.8909,0.113191
1561.7546,0.107633
1563.6182,0.104178
1565.4819,0.102426
1567.3456,0.101279
1569.2092,0.101677
1571.0729,0.100728
1572.9366,0.098142
1574.8002,0.098151
1576.6639,0.100082
1578.5276,0.098852
1580.3912,0.097122
1582.2549,0.096794
1584.1186,0.096949
1585.9822,0.097142
1587.8459,0.097297
1589.7096,0.097803
1591.5733,0.098315
1593.4369,0.098904
1595.3006,0.099690
1597.1643,0.100591
1599.0279,0.101415
1600.8916,0.102445
1602.7553,0.103588
1604.6189,0.105015
1606.4826,0.106791
1608.3463,0.109082
1610.2099,0.111209
1612.0736,0.112860
1613.9373,0.114812
1615.8010,0.119512
1617.6646,0.124873
1619.5283,0.125585
1621.3920,0.127109
1623.2556,0.131145
1625.1193,0.133701
1626.9830,0.135232
1628.8466,0.136882
1630.7103,0.136859
1632.5740,0.136455
1634.4376,0.138470
1636.3013,0.141290
1638.1650,0.139135
1640.0286,0.136096
1641.8923,0.134117
1643.7560,0.132507
1645.6197,0.132189
1647.4833,0.131683
1649.3470,0.127877
1651.2107,0.125521
1653.0743,0.128559
1654.9380,0.125654
1656.8017,0.119768
1658.6653,0.115524
1660.5290,0.112390
1662.3927,0.109243
1664.2563,0.105116
1666.1200,0.100610
1667.9837,0.097264
1669.8474,0.094189
1671.7110,0.089957
1673.5747,0.085737
1675.4384,0.082027
1677.3020,0.077439
1679.1657,0.072964
1681.0294,0.068931
1682.8930,0.065789
1684.7567,0.061839
1686.6204,0.056936
1688.4840,0.052786
1690.3477,0.048618
1692.2114,0.044480
1694.0750,0.040908
1695.9387,0.037026
1697.8024,0.033322
1699.6661,0.030294
1701.5297,0.027248
1703.3934,0.024716
1705.2571,0.022666
1707.1207,0.020772
1708.9844,0.019200
1710.8481,0.017829
1712.7117,0.016761
1714.5754,0.015819
1716.4391,0.015247
1718.3027,0.014002
1720.1664,0.012862
1722.0301,0.012021
1723.8937,0.011254
1725.7574,0.010462
1727.6211,0.009652
1729.4848,0.008876
1731.3484,0.008738
1733.2121,0.008603
1735.0758,0.008130
1736.9394,0.007541
1738.8031,0.007244
1740.6668,0.007033
1742.5304,0.006798
1744.3941,0.006620
1746.2578,0.006223
1748.1214,0.005448
1749.9851,0.004576
1751.8488,0.003533
1753.7125,0.002792
1755.5761,0.001885
1757.4398,0.001329
1759.3035,0.001083
1761.1671,0.000700
1763.0308,0.000311
1764.8945,-0.000045
1766.7581,-0.000378
1768.6218,-0.000447
1770.4855,-0.000576
1772.3491,-0.000783
1774.2128,-0.000988
1776.0765,-0.001082
1777.9401,-0.001022
1779.8038,-0.001199
1781.6675,-0.001206
1783.5312,-0.001267
1785.3948,-0.001576
1787.2585,-0.001724
1789.1222,-0.001748
1790.9858,-0.001809
1792.8495,-0.001848
1794.7132,-0.001817
1796.5768,-0.001814
1798.4405,-0.001906
1800.3042,-0.002196
1802.1678,-0.002411
1804.0315,-0.002335
1805.8952,-0.002226
1807.7589,-0.002319
1809.6225,-0.002571
1811.4862,-0.002844
1813.3499,-0.002805
1815.2135,-0.002783
1817.0772,-0.002767
1818.9409,-0.002520
1820.8045,-0.002525
1822.6682,-0.002783
1824.5319,-0.002692
1826.3955,-0.002586
1828.2592,-0.002626
1830.1229,-0.002673
1831.9865,-0.002518
1833.8502,-0.002527
1835.7139,-0.002835
1837.5776,-0.003303
1839.4412,-0.002963
1841.3049,-0.002546
1843.1686,-0.002553
1845.0322,-0.002561
1846.8959,-0.002526
1848.7596,-0.002614
1850.6232,-0.002767
1852.4869,-0.002821
1854.3506,-0.002724
1856.2142,-0.002824
1858.0779,-0.002952
1859.9416,-0.002897
1861.8052,-0.002918
1863.6689,-0.002788
1865.5326,-0.002696
1867.3963,-0.002912
1869.2599,-0.003122
1871.1236,-0.003104
1872.9873,-0.002917
1874.8509,-0.002696
1876.7146,-0.002455
1878.5783,-0.002368
1880.4419,-0.002432
1882.3056,-0.002335
1884.1693,-0.002082
1886.0329,-0.002007
1887.8966,-0.002372
1889.7603,-0.002953
1891.6240,-0.002963
1893.4876,-0.002836
1895.3513,-0.002702
1897.2150,-0.002097
1899.0786,-0.002113
1900.9423,-0.002523
1902.8060,-0.002304
1904.6696,-0.002187
1906.5333,-0.002410
1908.3970,-0.002847
1910.2606,-0.002415
1912.1243,-0.001941
1913.9880,-0.002490
1915.8516,-0.002622
1917.7153,-0.002323
1919.5790,-0.002018
1921.4427,-0.001892
1923.3063,-0.002182
1925.1700,-0.002046
1927.0337,-0.001996
1928.8973,-0.002469
1930.7610,-0.002076
1932.6247,-0.001501
1934.4883,-0.001918
1936.3520,-0.002289
1938.2157,-0.002044
1940.0793,-0.001591
1941.9430,-0.001545
1943.8067,-0.001390
1945.6704,-0.001304
1947.5340,-0.001864
1949.3977,-0.001987
1951.2614,-0.001021
1953.1250,-0.000876
1954.9887,-0.000965
1956.8524,-0.000848
1958.7160,-0.001250
1960.5797,-0.001723
1962.4434,-0.000504
1964.3070,0.000491
1966.1707,-0.000079
1968.0344,-0.000451
1969.8980,-0.000538
1971.7617,-0.000331
1973.6254,0.000638
1975.4891,0.000988
1977.3527,0.001714
1979.2164,0.002943
1981.0801,0.001855
1982.9437,0.000553
1984.8074,0.000626
1986.6711,0.001242
1988.5347,0.001949
1990.3984,0.001237
1992.2621,0.000153
1994.1257,0.001023
1995.9894,0.001324
1997.8531,-0.000078
1999.7167,-0.000624
2001.5804,-0.000161
2003.4441,-0.000160
2005.3078,-0.000550
2007.1714,0.000634
2009.0351,0.000795
2010.8988,-0.000602
2012.7624,-0.000316
2014.6261,0.000742
2016.4898,0.001245
2018.3534,0.001938
2020.2171,0.002245
2022.0808,0.002594
2023.9444,0.002435
2025.8081,0.002072
2027.6718,0.002162
2029.5355,0.002335
2031.3991,0.002788
2033.2628,0.002416
2035.1265,0.001945
2036.9901,0.002594
2038.8538,0.003393
2040.7175,0.002634
2042.5811,0.002677
2044.4448,0.004068
2046.3085,0.004329
2048.1721,0.003505
2050.0358,0.002853
2051.8995,0.003326
2053.7631,0.003214
2055.6268,0.002408
2057.4905,0.002478
2059.3542,0.002703
2061.2178,0.002587
2063.0815,0.002468
2064.9452,0.002422
2066.8088,0.002600
2068.6725,0.002996
2070.5362,0.003027
2072.3998,0.002645
2074.2635,0.002519
2076.1272,0.002360
2077.9908,0.001947
2079.8545,0.002182
2081.7182,0.002326
2083.5819,0.001957
2085.4455,0.002008
2087.3092,0.002268
2089.1729,0.002237
2091.0365,0.002209
2092.9002,0.001857
2094.7639,0.001887
2096.6275,0.002297
2098.4912,0.002097
2100.3549,0.001866
2102.2185,0.002013
2104.0822,0.002278
2105.9459,0.002838
2107.8095,0.003014
2109.6732,0.002629
2111.5369,0.002470
2113.4006,0.002234
2115.2642,0.002229
2117.1279,0.002537
2118.9916,0.002709
2120.8552,0.002790
2122.7189,0.002399
2124.5826,0.001919
2126.4462,0.001582
2128.3099,0.000729
2130.1736,0.000361
2132.0372,0.000877
2133.9009,0.001519
2135.7646,0.002172
2137.6282,0.002843
2139.4919,0.002857
2141.3556,0.002248
2143.2193,0.002476
2145.0829,0.004145
2146.9466,0.004655
2148.8103,0.003386
2150.6739,0.002757
2152.5376,0.003133
2154.4013,0.003527
2156.2649,0.003168
2158.1286,0.004202
2159.9923,0.006956
2161.8559,0.007577
2163.7196,0.006488
2165.5833,0.005558
2167.4470,0.005309
2169.3106,0.005633
2171.1743,0.005260
2173.0380,0.005375
2174.9016,0.006484
2176.7653,0.006394
2178.6290,0.005277
2180.4926,0.004651
2182.3563,0.005048
2184.2200,0.005215
2186.0836,0.004789
2187.9473,0.004508
2189.8110,0.003740
2191.6746,0.003734
2193.5383,0.005118
2195.4020,0.005989
2197.2657,0.005861
2199.1293,0.005360
2200.9930,0.005353
2202.8567,0.005143
2204.7203,0.004156
2206.5840,0.003993
2208.4477,0.004452
2210.3113,0.004730
2212.1750,0.005034
2214.0387,0.005122
2215.9023,0.004689
2217.7660,0.004307
2219.6297,0.004337
2221.4934,0.004108
2223.3570,0.004565
2225.2207,0.005247
2227.0844,0.004598
2228.9480,0.004148
2230.8117,0.004841
2232.6754,0.005318
2234.5390,0.004509
2236.4027,0.003605
2238.2664,0.003402
2240.1300,0.003772
2241.9937,0.004221
2243.8574,0.003967
2245.7210,0.003485
2247.5847,0.003357
2249.4484,0.003749
2251.3121,0.004322
2253.1757,0.004539
2255.0394,0.004564
2256.9031,0.004216
2258.7667,0.004161
2260.6304,0.004475
2262.4941,0.003831
2264.3577,0.003103
2266.2214,0.003461
2268.0851,0.004103
2269.9487,0.004135
2271.8124,0.004066
2273.6761,0.004212
2275.5397,0.004320
2277.4034,0.004406
2279.2671,0.004809
2281.1308,0.004926
2282.9944,0.004591
2284.8581,0.004638
2286.7218,0.004631
2288.5854,0.004089
2290.4491,0.003682
2292.3128,0.004044
2294.1764,0.004508
2296.0401,0.004093
2297.9038,0.003512
2299.7674,0.003642
2301.6311,0.003663
2303.4948,0.003430
2305.3585,0.003662
2307.2221,0.003955
2309.0858,0.003888
2310.9495,0.003808
2312.8131,0.003952
2314.6768,0.004176
2316.5405,0.004311
2318.4041,0.004634
2320.2678,0.004836
2322.1315,0.004567
2323.9951,0.004342
2325.8588,0.004140
2327.7225,0.003731
2329.5861,0.003458
2331.4498,0.003443
2333.3135,0.003577
2335.1772,0.003503
2337.0408,0.003375
2338.9045,0.003997
2340.7682,0.004507
2342.6318,0.004339
2344.4955,0.004236
2346.3592,0.004302
2348.2228,0.003765
2350.0865,0.002817
2351.9502,0.002432
2353.8138,0.002876
2355.6775,0.003667
2357.5412,0.004794
2359.4049,0.005327
2361.2685,0.005055
2363.1322,0.005160
2364.9959,0.005826
2366.8595,0.006127
2368.7232,0.005742
2370.5869,0.005234
2372.4505,0.005019
2374.3142,0.005342
2376.1779,0.005276
2378.0415,0.004775
2379.9052,0.004547
2381.7689,0.004529
2383.6325,0.004423
2385.4962,0.004329
2387.3599,0.004685
2389.2236,0.004898
2391.0872,0.004708
2392.9509,0.004715
2394.8146,0.005071
2396.6782,0.004925
2398.5419,0.004332
2400.4056,0.004445
2402.2692,0.005086
2404.1329,0.005272
2405.9966,0.005252
2407.8602,0.005492
2409.7239,0.005673
2411.5876,0.005570
2413.4512,0.005397
2415.3149,0.005250
2417.1786,0.005098
2419.0423,0.005397
2420.9059,0.005810
2422.7696,0.005623
2424.6333,0.005540
2426.4969,0.005847
2428.3606,0.005876
2430.2243,0.005884
2432.0879,0.006008
2433.9516,0.006035
2435.8153,0.006106
2437.6789,0.006427
2439.5426,0.006594
2441.4063,0.006514
2443.2700,0.006670
2445.1336,0.006849
2446.9973,0.006742
2448.8610,0.006775
2450.7246,0.006916
2452.5883,0.006920
2454.4520,0.007032
2456.3156,0.007065
2458.1793,0.006876
2460.0430,0.006926
2461.9066,0.006826
2463.7703,0.006597
2465.6340,0.006877
2467.4976,0.007261
2469.3613,0.007146
2471.2250,0.007042
2473.0887,0.007375
2474.9523,0.007435
2476.8160,0.007233
2478.6797,0.007006
2480.5433,0.007176
2482.4070,0.007646
2484.2707,0.007593
2486.1343,0.007334
2487.9980,0.007415
2489.8617,0.007533
2491.7253,0.007697
2493.5890,0.007799
2495.4527,0.007806
2497.3164,0.007941
2499.1800,0.008030
2501.0437,0.008112
2502.9074,0.008369
2504.7710,0.008393
2506.6347,0.008294
2508.4984,0.008318
2510.3620,0.008538
2512.2257,0.008597
2514.0894,0.008481
2515.9530,0.008202
2517.8167,0.008393
2519.6804,0.008611
2521.5440,0.008899
2523.4077,0.009156
2525.2714,0.008775
2527.1351,0.008601
2528.9987,0.008639
2530.8624,0.008752
2532.7261,0.008999
2534.5897,0.008875
2536.4534,0.008661
2538.3171,0.008689
2540.1807,0.008939
2542.0444,0.009029
2543.9081,0.009244
2545.7717,0.009605
2547.6354,0.009885
2549.4991,0.009979
2551.3627,0.009970
2553.2264,0.009953
2555.0901,0.009974
2556.9538,0.009914
2558.8174,0.009792
2560.6811,0.010010
2562.5448,0.010129
2564.4084,0.010062
2566.2721,0.010253
2568.1358,0.010547
2569.9994,0.010663
2571.8631,0.010722
2573.7268,0.010867
2575.5904,0.011123
2577.4541,0.011096
2579.3178,0.010773
2581.1815,0.010923
2583.0451,0.011211
2584.9088,0.011477
2586.7725,0.011613
2588.6361,0.011540
2590.4998,0.011416
2592.3635,0.011308
2594.2271,0.011390
2596.0908,0.011819
2597.9545,0.012128
2599.8181,0.012167
2601.6818,0.012347
2603.5455,0.012512
2605.4091,0.012418
2607.2728,0.012629
2609.1365,0.012928
2611.0002,0.013119
2612.8638,0.013331
2614.7275,0.013189
2616.5912,0.013274
2618.4548,0.013694
2620.3185,0.013789
2622.1822,0.013778
2624.0458,0.014028
2625.9095,0.014066
2627.7732,0.014163
2629.6368,0.014492
2631.5005,0.014645
2633.3642,0.014667
2635.2279,0.015026
2637.0915,0.015181
2638.9552,0.015228
2640.8189,0.015483
2642.6825,0.015619
2644.5462,0.015611
2646.4099,0.015569
2648.2735,0.015947
2650.1372,0.016465
2652.0009,0.016345
2653.8645,0.016254
2655.7282,0.016396
2657.5919,0.016529
2659.4555,0.016716
2661.3192,0.016730
2663.1829,0.016579
2665.0466,0.016701
2666.9102,0.016899
2668.7739,0.016984
2670.6376,0.017026
2672.5012,0.017118
2674.3649,0.017489
2676.2286,0.017740
2678.0922,0.017817
2679.9559,0.017923
2681.8196,0.017987
2683.6832,0.018027
2685.5469,0.018281
2687.4106,0.018605
2689.2742,0.018820
2691.1379,0.018867
2693.0016,0.018883
2694.8653,0.019026
2696.7289,0.019189
2698.5926,0.019234
2700.4563,0.019422
2702.3199,0.019769
2704.1836,0.019915
2706.0473,0.019989
2707.9109,0.020108
2709.7746,0.020286
2711.6383,0.020387
2713.5019,0.020545
2715.3656,0.020951
2717.2293,0.021223
2719.0930,0.021347
2720.9566,0.021509
2722.8203,0.021689
2724.6840,0.021872
2726.5476,0.021910
2728.4113,0.022017
2730.2750,0.022325
2732.1386,0.022544
2734.0023,0.022569
2735.8660,0.022760
2737.7296,0.022933
2739.5933,0.023086
2741.4570,0.023193
2743.3206,0.023522
2745.1843,0.023685
2747.0480,0.023732
2748.9117,0.023898
2750.7753,0.024068
2752.6390,0.024215
2754.5027,0.024413
2756.3663,0.024580
2758.2300,0.024935
2760.0937,0.025158
2761.9573,0.025289
2763.8210,0.025523
2765.6847,0.025834
2767.5483,0.025892
2769.4120,0.026059
2771.2757,0.026385
2773.1394,0.026751
2775.0030,0.026915
2776.8667,0.027066
2778.7304,0.027170
2780.5940,0.027409
2782.4577,0.027675
2784.3214,0.027974
2786.1850,0.028350
2788.0487,0.028715
2789.9124,0.028908
2791.7760,0.029064
2793.6397,0.029230
2795.5034,0.029479
2797.3670,0.029866
2799.2307,0.030092
2801.0944,0.030174
2802.9581,0.030399
2804.8217,0.030813
2806.6854,0.031191
2808.5491,0.031571
2810.4127,0.031737
2812.2764,0.031961
2814.1401,0.032303
2816.0037,0.032609
2817.8674,0.032934
2819.7311,0.033191
2821.5947,0.033491
2823.4584,0.033537
2825.3221,0.033863
2827.1857,0.034304
2829.0494,0.034608
2830.9131,0.035100
2832.7768,0.035694
2834.6404,0.036091
2836.5041,0.036347
2838.3678,0.036775
2840.2314,0.037296
2842.0951,0.037890
2843.9588,0.038663
2845.8224,0.039563
2847.6861,0.040574
2849.5498,0.041428
2851.4134,0.042017
2853.2771,0.042449
2855.1408,0.042634
2857.0045,0.042537
2858.8681,0.042522
2860.7318,0.042708
2862.5955,0.042905
2864.4591,0.043054
2866.3228,0.043767
2868.1865,0.044463
2870.0501,0.044928
2871.9138,0.045070
2873.7775,0.045200
2875.6411,0.045362
2877.5048,0.045359
2879.3685,0.045184
2881.2321,0.045166
2883.0958,0.045235
2884.9595,0.045297
2886.8232,0.045446
2888.6868,0.045956
2890.5505,0.046276
2892.4142,0.046570
2894.2778,0.046756
2896.1415,0.046844
2898.0052,0.047079
2899.8688,0.047567
2901.7325,0.048026
2903.5962,0.048558
2905.4598,0.048815
2907.3235,0.049416
2909.1872,0.050346
2911.0509,0.050927
2912.9145,0.051652
2914.7782,0.052558
2916.6419,0.053239
2918.5055,0.054036
2920.3692,0.054665
2922.2329,0.055183
2924.0965,0.055895
2925.9602,0.056446
2927.8239,0.056218
2929.6875,0.055587
2931.5512,0.055202
2933.4149,0.055032
2935.2785,0.054584
2937.1422,0.054067
2939.0059,0.053647
2940.8696,0.053128
2942.7332,0.052527
2944.5969,0.052356
2946.4606,0.052180
2948.3242,0.051815
2950.1879,0.051549
2952.0516,0.051871
2953.9152,0.052101
2955.7789,0.052024
2957.6426,0.052041
2959.5062,0.052315
2961.3699,0.052622
2963.2336,0.052426
2965.0972,0.051603
2966.9609,0.051519
2968.8246,0.051606
2970.6883,0.051068
2972.5519,0.050273
2974.4156,0.049938
2976.2793,0.049897
2978.1429,0.049595
2980.0066,0.049137
2981.8703,0.048892
2983.7339,0.048479
2985.5976,0.048191
2987.4613,0.048395
2989.3249,0.048361
2991.1886,0.048122
2993.0523,0.047921
2994.9160,0.047727
2996.7796,0.047794
2998.6433,0.047945
3000.5070,0.048169
3002.3706,0.048436
3004.2343,0.048704
3006.0980,0.049043
3007.9616,0.049345
3009.8253,0.049664
3011.6890,0.050120
3013.5526,0.050188
3015.4163,0.050376
3017.2800,0.050769
3019.1436,0.051187
3021.0073,0.051557
3022.8710,0.052269
3024.7347,0.052992
3026.5983,0.053476
3028.4620,0.053842
3030.3257,0.054360
3032.1893,0.054669
3034.0530,0.055125
3035.9167,0.055392
3037.7803,0.055737
3039.6440,0.056548
3041.5077,0.057039
3043.3713,0.057360
3045.2350,0.057912
3047.0987,0.058218
3048.9624,0.058854
3050.8260,0.059384
3052.6897,0.059584
3054.5534,0.059549
3056.4170,0.059922
3058.2807,0.060542
3060.1444,0.061240
3062.0080,0.061539
3063.8717,0.061905
3065.7354,0.062331
3067.5990,0.062948
3069.4627,0.063089
3071.3264,0.063225
3073.1900,0.063543
3075.0537,0.063856
3076.9174,0.064121
3078.7811,0.064359
3080.6447,0.064641
3082.5084,0.064863
3084.3721,0.064616
3086.2357,0.064778
3088.0994,0.065228
3089.9631,0.065293
3091.8267,0.065365
3093.6904,0.065665
3095.5541,0.065934
3097.4177,0.066232
3099.2814,0.066381
3101.1451,0.066679
3103.0087,0.066817
3104.8724,0.067035
3106.7361,0.067361
3108.5998,0.067619
3110.4634,0.067629
3112.3271,0.068146
3114.1908,0.068596
3116.0544,0.069151
3117.9181,0.069340
3119.7818,0.069482
3121.6454,0.069546
3123.5091,0.069815
3125.3728,0.070283
3127.2364,0.070919
3129.1001,0.071402
3130.9638,0.071576
3132.8275,0.071894
3134.6911,0.072978
3136.5548,0.073516
3138.4185,0.073565
3140.2821,0.073532
3142.1458,0.074146
3144.0095,0.074920
3145.8731,0.075490
3147.7368,0.076124
3149.6005,0.076897
3151.4641,0.077252
3153.3278,0.077424
3155.1915,0.077862
3157.0551,0.078611
3158.9188,0.079052
3160.7825,0.079513
3162.6462,0.079884
3164.5098,0.080897
3166.3735,0.081576
3168.2372,0.081826
3170.1008,0.082274
3171.9645,0.083060
3173.8282,0.083417
3175.6918,0.083937
3177.5555,0.084135
3179.4192,0.084797
3181.2828,0.085384
3183.1465,0.085845
3185.0102,0.086281
3186.8739,0.086835
3188.7375,0.087089
3190.6012,0.087537
3192.4649,0.088131
3194.3285,0.088720
3196.1922,0.088763
3198.0559,0.089681
3199.9195,0.090426
3201.7832,0.090119
3203.6469,0.089725
3205.5105,0.090113
3207.3742,0.090177
3209.2379,0.090698
3211.1015,0.091192
3212.9652,0.091535
3214.8289,0.091504
3216.6926,0.091850
3218.5562,0.091959
3220.4199,0.092177
3222.2836,0.092201
3224.1472,0.092494
3226.0109,0.092725
3227.8746,0.093087
3229.7382,0.093472
3231.6019,0.093361
3233.4656,0.093149
3235.3292,0.093727
3237.1929,0.094092
3239.0566,0.094202
3240.9202,0.093985
3242.7839,0.094057
3244.6476,0.094583
3246.5113,0.095262
3248.3749,0.095224
3250.2386,0.094928
3252.1023,0.095265
3253.9659,0.096044
3255.8296,0.096143
3257.6933,0.096101
3259.5569,0.096108
3261.4206,0.096403
3263.2843,0.097029
3265.1479,0.096988
3267.0116,0.096375
3268.8753,0.096886
3270.7390,0.097431
3272.6026,0.097476
3274.4663,0.097381
3276.3300,0.097421
3278.1936,0.096735
3280.0573,0.096404
3281.9210,0.096185
3283.7846,0.096070
3285.6483,0.096004
3287.5120,0.096296
3289.3756,0.096046
3291.2393,0.095972
3293.1030,0.095787
3294.9666,0.095102
3296.8303,0.094115
3298.6940,0.094004
3300.5577,0.093915
3302.4213,0.093687
3304.2850,0.093445
3306.1487,0.093388
3308.0123,0.092811
3309.8760,0.092046
3311.7397,0.091452
3313.6033,0.091201
3315.4670,0.090625
3317.3307,0.090701
3319.1943,0.090706
3321.0580,0.090085
3322.9217,0.089425
3324.7854,0.089823
3326.6490,0.089876
3328.5127,0.089373
3330.3764,0.088758
3332.2400,0.088615
3334.1037,0.088432
3335.9674,0.088223
3337.8310,0.087519
3339.6947,0.087435
3341.5584,0.087400
3343.4220,0.086840
3345.2857,0.086461
3347.1494,0.086800
3349.0130,0.086407
3350.8767,0.086064
3352.7404,0.085843
3354.6041,0.085835
3356.4677,0.085369
3358.3314,0.084887
3360.1951,0.084432
3362.0587,0.084246
3363.9224,0.083801
3365.7861,0.083064
3367.6497,0.082789
3369.5134,0.082749
3371.3771,0.081988
3373.2407,0.081923
3375.1044,0.081848
3376.9681,0.081394
3378.8317,0.080833
3380.6954,0.080649
3382.5591,0.080241
3384.4228,0.079931
3386.2864,0.079703
3388.1501,0.079674
3390.0138,0.079004
3391.8774,0.078464
3393.7411,0.078331
3395.6048,0.078264
3397.4684,0.077889
3399.3321,0.077421
3401.1958,0.076548
3403.0594,0.076294
3404.9231,0.075888
3406.7868,0.075666
3408.6505,0.075439
3410.5141,0.074634
3412.3778,0.073751
3414.2415,0.073822
3416.1051,0.074102
3417.9688,0.073792
3419.8325,0.072921
3421.6961,0.072092
3423.5598,0.071460
3425.4235,0.071141
3427.2871,0.070621
3429.1508,0.070399
3431.0145,0.069703
3432.8781,0.069258
3434.7418,0.069139
3436.6055,0.068765
3438.4692,0.068440
3440.3328,0.068742
3442.1965,0.068332
3444.0602,0.067246
3445.9238,0.066302
3447.7875,0.065826
3449.6512,0.065495
3451.5148,0.064914
3453.3785,0.063821
3455.2422,0.063335
3457.1058,0.062970
3458.9695,0.062349
3460.8332,0.061777
3462.6969,0.061278
3464.5605,0.059970
3466.4242,0.059378
3468.2879,0.059014
3470.1515,0.058576
3472.0152,0.058186
3473.8789,0.057783
3475.7425,0.057084
3477.6062,0.056629
3479.4699,0.055667
3481.3335,0.054523
3483.1972,0.053847
3485.0609,0.053806
3486.9245,0.053252
3488.7882,0.052249
3490.6519,0.051556
3492.5156,0.050821
3494.3792,0.049744
3496.2429,0.049110
3498.1066,0.048175
3499.9702,0.047005
3501.8339,0.046469
3503.6976,0.046329
3505.5612,0.046034
3507.4249,0.045717
3509.2886,0.044877
3511.1522,0.043579
3513.0159,0.042691
3514.8796,0.042373
3516.7432,0.041644
3518.6069,0.040519
3520.4706,0.039356
3522.3343,0.039326
3524.1979,0.039183
3526.0616,0.037922
3527.9253,0.037246
3529.7889,0.036898
3531.6526,0.036094
3533.5163,0.034963
3535.3799,0.033805
3537.2436,0.033184
3539.1073,0.032722
3540.9709,0.032128
3542.8346,0.031434
3544.6983,0.030910
3546.5620,0.030284
3548.4256,0.029103
3550.2893,0.028297
3552.1530,0.028000
3554.0166,0.027256
3555.8803,0.026221
3557.7440,0.025603
3559.6076,0.025377
3561.4713,0.024434
3563.3350,0.023187
3565.1986,0.022388
3567.0623,0.022189
3568.9260,0.022030
3570.7896,0.021593
3572.6533,0.020769
3574.5170,0.020206
3576.3807,0.019502
3578.2443,0.018530
3580.1080,0.017308
3581.9717,0.016184
3583.8353,0.015430
3585.6990,0.014802
3587.5627,0.014244
3589.4263,0.013595
3591.2900,0.013152
3593.1537,0.012786
3595.0173,0.012345
3596.8810,0.011490
3598.7447,0.010577
3600.6084,0.010360
3602.4720,0.009940
3604.3357,0.009417
3606.1994,0.009001
3608.0630,0.007843
3609.9267,0.006950
3611.7904,0.006462
3613.6540,0.005685
3615.5177,0.005321
3617.3814,0.004792
3619.2450,0.003910
3621.1087,0.003437
3622.9724,0.003098
3624.8360,0.002637
3626.6997,0.001982
3628.5634,0.001231
3630.4271,0.000648
3632.2907,0.000533
3634.1544,0.000059
3636.0181,-0.000504
3637.8817,-0.001036
3639.7454,-0.001991
3641.6091,-0.002644
3643.4727,-0.002952
3645.3364,-0.003162
3647.2001,-0.003632
3649.0637,-0.004604
3650.9274,-0.005421
3652.7911,-0.005569
3654.6547,-0.005751
3656.5184,-0.006159
3658.3821,-0.006508
3660.2458,-0.006967
3662.1094,-0.007286
3663.9731,-0.007562
3665.8368,-0.007841
3667.7004,-0.008442
3669.5641,-0.009210
3671.4278,-0.009281
3673.2914,-0.008639
3675.1551,-0.009217
3677.0188,-0.010424
3678.8824,-0.010457
3680.7461,-0.010653
3682.6098,-0.010655
3684.4735,-0.010341
3686.3371,-0.010194
3688.2008,-0.010490
3690.0645,-0.011187
3691.9281,-0.011283
3693.7918,-0.011128
3695.6555,-0.011084
3697.5191,-0.011072
3699.3828,-0.011366
3701.2465,-0.011947
3703.1101,-0.012018
3704.9738,-0.011607
3706.8375,-0.011205
3708.7011,-0.011265
3710.5648,-0.011618
3712.4285,-0.011459
3714.2922,-0.011333
3716.1558,-0.011379
3718.0195,-0.011395
3719.8832,-0.011696
3721.7468,-0.012000
3723.6105,-0.011877
3725.4742,-0.011935
3727.3378,-0.012018
3729.2015,-0.011626
3731.0652,-0.011913
3732.9288,-0.012353
3734.7925,-0.012094
3736.6562,-0.012115
3738.5199,-0.012205
3740.3835,-0.012094
3742.2472,-0.011848
3744.1109,-0.012018
3745.9745,-0.012212
3747.8382,-0.012131
3749.7019,-0.012583
3751.5655,-0.013070
3753.4292,-0.013061
3755.2929,-0.012602
3757.1565,-0.012319
3759.0202,-0.012248
3760.8839,-0.012261
3762.7475,-0.012263
3764.6112,-0.012135
3766.4749,-0.011908
3768.3386,-0.011948
3770.2022,-0.012308
3772.0659,-0.012028
3773.9296,-0.011779
3775.7932,-0.012126
3777.6569,-0.012539
3779.5206,-0.012609
3781.3842,-0.012322
3783.2479,-0.012196
3785.1116,-0.012198
3786.9752,-0.011957
3788.8389,-0.011823
3790.7026,-0.012021
3792.5662,-0.012084
3794.4299,-0.011872
3796.2936,-0.012073
3798.1573,-0.012381
3800.0209,-0.012065
3801.8846,-0.012158
3803.7483,-0.012436
3805.6119,-0.012283
3807.4756,-0.012583
3809.3393,-0.012779
3811.2029,-0.012391
3813.0666,-0.011957
3814.9303,-0.011959
3816.7939,-0.012361
3818.6576,-0.012268
3820.5213,-0.012312
3822.3850,-0.012524
3824.2486,-0.012094
3826.1123,-0.012172
3827.9760,-0.012518
3829.8396,-0.012495
3831.7033,-0.012204
3833.5670,-0.011759
3835.4306,-0.012033
3837.2943,-0.012787
3839.1580,-0.012501
3841.0216,-0.012030
3842.8853,-0.012311
3844.7490,-0.012406
3846.6126,-0.011971
3848.4763,-0.012020
3850.3400,-0.012205
3852.2037,-0.012447
3854.0673,-0.012902
3855.9310,-0.013001
3857.7947,-0.012766
3859.6583,-0.012294
3861.5220,-0.011960
3863.3857,-0.012126
3865.2493,-0.012392
3867.1130,-0.012160
3868.9767,-0.012166
3870.8403,-0.012819
3872.7040,-0.012730
3874.5677,-0.012365
3876.4314,-0.012011
3878.2950,-0.011777
3880.1587,-0.012045
3882.0224,-0.012215
3883.8860,-0.012074
3885.7497,-0.012251
3887.6134,-0.011847
3889.4770,-0.011619
3891.3407,-0.012363
3893.2044,-0.012554
3895.0680,-0.012250
3896.9317,-0.011918
3898.7954,-0.011466
3900.6590,-0.011625
3902.5227,-0.012004
3904.3864,-0.012532
3906.2501,-0.012546
3908.1137,-0.012238
3909.9774,-0.012127
3911.8411,-0.012167
3913.7047,-0.011982
3915.5684,-0.012020
3917.4321,-0.012178
3919.2957,-0.012054
3921.1594,-0.011869
3923.0231,-0.012021
3924.8867,-0.012096
3926.7504,-0.011986
3928.6141,-0.011894
3930.4777,-0.011890
3932.3414,-0.011921
3934.2051,-0.011736
3936.0688,-0.011427
3937.9324,-0.011459
3939.7961,-0.011583
3941.6598,-0.011705
3943.5234,-0.011690
3945.3871,-0.011777
3947.2508,-0.011933
3949.1144,-0.011758
3950.9781,-0.011665
3952.8418,-0.011872
3954.7054,-0.011747
3956.5691,-0.011586
3958.4328,-0.011596
3960.2965,-0.011401
3962.1601,-0.011136
3964.0238,-0.011407
3965.8875,-0.011682
3967.7511,-0.011621
3969.6148,-0.011316
3971.4785,-0.011143
3973.3421,-0.011262
3975.2058,-0.011519
3977.0695,-0.011517
3978.9331,-0.011355
3980.7968,-0.011283
3982.6605,-0.011364
3984.5241,-0.011143
3986.3878,-0.010978
3988.2515,-0.011381
3990.1152,-0.011870
3991.9788,-0.011646
3993.8425,-0.011489
3995.7062,-0.011568
3997.5698,-0.011654
3999.4335,-0.011466
