Wavenumber,Intensity
650.4205,0.143458
652.2841,0.143421
654.1478,0.147361
656.0115,0.146624
657.8751,0.139071
659.7388,0.134328
661.6025,0.134488
663.4661,0.134413
665.3298,0.131926
667.1935,0.133732
669.0571,0.142706
670.9208,0.139851
672.7845,0.135780
674.6481,0.133289
676.5118,0.132452
678.3755,0.133158
680.2392,0.131561
682.1028,0.128339
683.9665,0.127093
685.8302,0.126865
687.6938,0.126380
689.5575,0.125422
691.4212,0.123817
693.2848,0.123345
695.1485,0.122139
697.0122,0.120583
698.8758,0.120137
700.7395,0.119280
702.6032,0.118058
704.4669,0.116854
706.3305,0.115012
708.1942,0.113554
710.0579,0.112996
711.9215,0.112564
713.7852,0.111001
715.6489,0.108290
717.5125,0.107333
719.3762,0.107637
721.2399,0.106448
723.1035,0.105287
724.9672,0.104045
726.8309,0.102079
728.6945,0.100981
730.5582,0.100385
732.4219,0.099639
734.2856,0.099014
736.1492,0.097595
738.0129,0.096187
739.8766,0.095744
741.7402,0.095903
743.6039,0.095612
745.4676,0.094631
747.3312,0.093578
749.1949,0.092598
751.0586,0.091647
752.9222,0.091140
754.7859,0.090562
756.6496,0.089755
758.5132,0.089144
760.3769,0.088800
762.2406,0.088335
764.1043,0.088117
765.9679,0.087804
767.8316,0.087575
769.6953,0.086886
771.5589,0.085874
773.4226,0.085070
775.2863,0.084165
777.1499,0.083157
779.0136,0.082119
780.8773,0.081198
782.7409,0.080566
784.6046,0.079637
786.4683,0.078590
788.3320,0.077752
790.1956,0.077252
792.0593,0.076443
793.9230,0.075422
795.7866,0.074647
797.6503,0.074305
799.5140,0.074050
801.3776,0.073616
803.2413,0.073684
805.1050,0.074294
806.9686,0.074187
808.8323,0.073824
810.6960,0.073502
812.5596,0.073145
814.4233,0.072710
816.2870,0.072197
818.1507,0.071614
820.0143,0.070763
821.8780,0.069696
823.7417,0.068870
825.6053,0.068054
827.4690,0.066849
829.3327,0.065578
831.1963,0.064342
833.0600,0.063080
834.9237,0.062087
836.7873,0.061463
838.6510,0.060886
840.5147,0.060181
842.3784,0.059612
844.2420,0.059056
846.1057,0.058710
847.9694,0.058803
849.8330,0.058820
851.6967,0.058737
853.5604,0.058955
855.4240,0.059013
857.2877,0.058706
859.1514,0.058482
861.0150,0.058571
862.8787,0.058681
864.7424,0.058975
866.6060,0.059689
868.4697,0.060608
870.3334,0.061268
872.1971,0.061120
874.0607,0.060289
875.9244,0.059399
877.7881,0.058562
879.6517,0.057660
881.5154,0.056644
883.3791,0.056029
885.2427,0.055625
887.1064,0.055283
888.9701,0.054965
890.8337,0.054848
892.6974,0.054917
894.5611,0.055059
896.4247,0.054966
898.2884,0.054592
900.1521,0.054228
902.0158,0.054023
903.8794,0.053622
905.7431,0.053234
907.6068,0.053174
909.4704,0.053255
911.3341,0.053566
913.1978,0.054107
915.0614,0.054515
916.9251,0.054910
918.7888,0.055220
920.6524,0.055444
922.5161,0.055746
924.3798,0.056031
926.2435,0.056108
928.1071,0.056092
929.9708,0.056135
931.8345,0.056412
933.6981,0.056692
935.5618,0.057007
937.4255,0.057929
939.2891,0.059198
941.1528,0.060484
943.0165,0.061853
944.8801,0.063223
946.7438,0.064347
948.6075,0.065027
950.4711,0.065541
952.3348,0.066066
954.1985,0.066904
956.0622,0.068037
957.9258,0.069608
959.7895,0.071835
961.6532,0.074585
963.5168,0.077489
965.3805,0.080050
967.2442,0.081984
969.1078,0.083359
970.9715,0.084234
972.8352,0.084953
974.6988,0.086015
976.5625,0.087494
978.4262,0.089274
980.2899,0.091301
982.1535,0.093361
984.0172,0.095226
985.8809,0.096906
987.7445,0.098554
989.6082,0.100186
991.4719,0.101778
993.3355,0.103484
995.1992,0.105238
997.0629,0.106935
998.9265,0.108345
1000.7902,0.109571
1002.6539,0.110977
1004.5175,0.112797
1006.3812,0.115214
1008.2449,0.118204
1010.1086,0.121547
1011.9722,0.125174
1013.8359,0.128984
1015.6996,0.132413
1017.5632,0.135387
1019.4269,0.137875
1021.2906,0.139605
1023.1542,0.140656
1025.0179,0.141624
1026.8816,0.142790
1028.7452,0.143844
1030.6089,0.144589
1032.4726,0.144907
1034.3362,0.144762
1036.1999,0.144272
1038.0636,0.143332
1039.9273,0.142178
1041.7909,0.141034
1043.6546,0.139877
1045.5183,0.138812
1047.3819,0.138129
1049.2456,0.137713
1051.1093,0.137536
1052.9729,0.137637
1054.8366,0.137769
1056.7003,0.137811
1058.5639,0.137852
1060.4276,0.137781
1062.2913,0.137671
1064.1550,0.137540
1066.0186,0.137508
1067.8823,0.137383
1069.7460,0.136906
1071.6096,0.136102
1073.4733,0.134989
1075.3370,0.133493
1077.2006,0.131490
1079.0643,0.128812
1080.9280,0.125505
1082.7916,0.121928
1084.6553,0.118296
1086.5190,0.114860
1088.3826,0.111711
1090.2463,0.108864
1092.1100,0.106536
1093.9737,0.104620
1095.8373,0.103083
1097.7010,0.101711
1099.5647,0.100308
1101.4283,0.099067
1103.2920,0.098107
1105.1557,0.097393
1107.0193,0.096925
1108.8830,0.096445
1110.7467,0.096050
1112.6103,0.095678
1114.4740,0.095043
1116.3377,0.094138
1118.2014,0.093087
1120.0650,0.091894
1121.9287,0.090486
1123.7924,0.088923
1125.6560,0.087354
1127.5197,0.085730
1129.3834,0.084016
1131.2470,0.082162
1133.1107,0.080235
1134.9744,0.078345
1136.8380,0.076639
1138.7017,0.075155
1140.5654,0.073886
1142.4290,0.072948
1144.2927,0.072437
1146.1564,0.072090
1148.0201,0.071923
1149.8837,0.071895
1151.7474,0.071924
1153.6111,0.071844
1155.4747,0.071447
1157.3384,0.070885
1159.2021,0.070277
1161.0657,0.069583
1162.9294,0.068657
1164.7931,0.067462
1166.6567,0.066043
1168.5204,0.064375
1170.3841,0.062468
1172.2477,0.060294
1174.1114,0.058029
1175.9751,0.056016
1177.8388,0.054379
1179.7024,0.053163
1181.5661,0.052442
1183.4298,0.052225
1185.2934,0.052475
1187.1571,0.052932
1189.0208,0.053552
1190.8844,0.054306
1192.7481,0.055176
1194.6118,0.056281
1196.4754,0.057565
1198.3391,0.058957
1200.2028,0.060426
1202.0665,0.061802
1203.9301,0.063111
1205.7938,0.064216
1207.6575,0.064944
1209.5211,0.065529
1211.3848,0.066210
1213.2485,0.066903
1215.1121,0.067548
1216.9758,0.068464
1218.8395,0.069671
1220.7031,0.070877
1222.5668,0.072048
1224.4305,0.073200
1226.2941,0.074211
1228.1578,0.075143
1230.0215,0.076075
1231.8852,0.076901
1233.7488,0.077478
1235.6125,0.077816
1237.4762,0.077994
1239.3398,0.077964
1241.2035,0.077878
1243.0672,0.077569
1244.9308,0.077069
1246.7945,0.076425
1248.6582,0.075773
1250.5218,0.075061
1252.3855,0.074369
1254.2492,0.073652
1256.1129,0.072969
1257.9765,0.072438
1259.8402,0.071887
1261.7039,0.071266
1263.5675,0.070694
1265.4312,0.070248
1267.2949,0.069835
1269.1585,0.069430
1271.0222,0.069069
1272.8859,0.068773
1274.7495,0.068474
1276.6132,0.068191
1278.4769,0.067977
1280.3405,0.067807
1282.2042,0.067631
1284.0679,0.067551
1285.9316,0.067612
1287.7952,0.067900
1289.6589,0.068158
1291.5226,0.068350
1293.3862,0.068790
1295.2499,0.069475
1297.1136,0.070286
1298.9772,0.071136
1300.8409,0.072018
1302.7046,0.072807
1304.5682,0.073619
1306.4319,0.074494
1308.2956,0.075293
1310.1592,0.075936
1312.0229,0.076613
1313.8866,0.077064
1315.7503,0.077068
1317.6139,0.077237
1319.4776,0.077498
1321.3413,0.077165
1323.2049,0.076648
1325.0686,0.076233
1326.9323,0.075887
1328.7959,0.075678
1330.6596,0.075610
1332.5233,0.075574
1334.3869,0.075472
1336.2506,0.075635
1338.1143,0.076463
1339.9780,0.077558
1341.8416,0.077462
1343.7053,0.076932
1345.5690,0.076862
1347.4326,0.076905
1349.2963,0.076940
1351.1600,0.076778
1353.0236,0.076753
1354.8873,0.076941
1356.7510,0.076823
1358.6146,0.076630
1360.4783,0.077369
1362.3420,0.079405
1364.2056,0.080741
1366.0693,0.081090
1367.9330,0.082260
1369.7967,0.083268
1371.6603,0.083990
1373.5240,0.085926
1375.3877,0.087702
1377.2513,0.087797
1379.1150,0.087747
1380.9787,0.087452
1382.8423,0.086914
1384.7060,0.086636
1386.5697,0.087705
1388.4333,0.088529
1390.2970,0.087346
1392.1607,0.086614
1394.0244,0.087805
1395.8880,0.089107
1397.7517,0.089244
1399.6154,0.089758
1401.4790,0.088691
1403.3427,0.087851
1405.2064,0.088255
1407.0700,0.087507
1408.9337,0.086106
1410.7974,0.085277
1412.6610,0.084068
1414.5247,0.082222
1416.3884,0.080919
1418.2520,0.082092
1420.1157,0.082865
1421.9794,0.080520
1423.8431,0.079728
1425.7067,0.079200
1427.5704,0.078478
1429.4341,0.079410
1431.2977,0.079888
1433.1614,0.079224
1435.0251,0.080210
1436.8887,0.084260
1438.7524,0.084752
1440.6161,0.083759
1442.4797,0.083857
1444.3434,0.083608
1446.2071,0.083672
1448.0707,0.084397
1449.9344,0.083604
1451.7981,0.081622
1453.6618,0.079548
1455.5254,0.079280
1457.3891,0.082472
1459.2528,0.079984
1461.1164,0.075529
1462.9801,0.073298
1464.8438,0.073354
1466.7074,0.071487
1468.5711,0.068081
1470.4348,0.065841
1472.2984,0.066466
1474.1621,0.066423
1476.0258,0.064859
1477.8895,0.063186
1479.7531,0.061993
1481.6168,0.061936
1483.4805,0.061536
1485.3441,0.061359
1487.2078,0.063337
1489.0715,0.067445
1490.9351,0.070443
1492.7988,0.069896
1494.6625,0.071174
1496.5261,0.076635
1498.3898,0.080895
1500.2535,0.081754
1502.1171,0.080928
1503.9808,0.081182
1505.8445,0.089672
1507.7082,0.101582
1509.5718,0.101060
1511.4355,0.100821
1513.2992,0.101977
1515.1628,0.103430
1517.0265,0.106307
1518.8902,0.107073
1520.7538,0.110257
1522.6175,0.114304
1524.4812,0.114048
1526.3448,0.115534
1528.2085,0.116071
1530.0722,0.115137
1531.9359,0.115941
1533.7995,0.119055
1535.6632,0.116684
1537.5269,0.113572
1539.3905,0.117829
1541.2542,0.123248
1543.1179,0.121612
1544.9815,0.119575
1546.8452,0.116478
1548.7089,0.114014
1550.5725,0.112433
1552.4362,0.109475
1554.2999,0.106381
1556.1635,0.103399
1558.0272,0.105591
1559.8909,0.109821
1561.7546,0.103582
1563.6182,0.098761
1565.4819,0.096123
1567.3456,0.094168
1569.2092,0.093948
1571.0729,0.092503
1572.9366,0.088832
1574.8002,0.088097
1576.6639,0.090270
1578.5276,0.088669
1580.3912,0.086305
1582.2549,0.085616
1584.1186,0.085524
1585.9822,0.085682
1587.8459,0.085789
1589.7096,0.086357
1591.5733,0.087230
1593.4369,0.088717
1595.3006,0.090469
1597.1643,0.091977
1599.0279,0.093306
1600.8916,0.095616
1602.7553,0.098415
1604.6189,0.100807
1606.4826,0.103315
1608.3463,0.106737
1610.2099,0.109634
1612.0736,0.111487
1613.9373,0.112925
1615.8010,0.117777
1617.6646,0.123592
1619.5283,0.123342
1621.3920,0.123576
1623.2556,0.127701
1625.1193,0.130077
1626.9830,0.130543
1628.8466,0.131254
1630.7103,0.130044
1632.5740,0.128030
1634.4376,0.129048
1636.3013,0.132692
1638.1650,0.130487
1640.0286,0.126578
1641.8923,0.123517
1643.7560,0.120687
1645.6197,0.119736
1647.4833,0.119311
1649.3470,0.114985
1651.2107,0.110891
1653.0743,0.113410
1654.9380,0.111907
1656.8017,0.106077
1658.6653,0.101477
1660.5290,0.097978
1662.3927,0.095224
1664.2563,0.091722
1666.1200,0.087306
1667.9837,0.083981
1669.8474,0.081438
1671.7110,0.077675
1673.5747,0.073710
1675.4384,0.071015
1677.3020,0.067193
1679.1657,0.062859
1681.0294,0.058828
1682.8930,0.055870
1684.7567,0.053392
1686.6204,0.049191
1688.4840,0.044831
1690.3477,0.040639
1692.2114,0.036520
1694.0750,0.032584
1695.9387,0.028848
1697.8024,0.025591
1699.6661,0.022811
1701.5297,0.020415
1703.3934,0.017820
1705.2571,0.015708
1707.1207,0.014058
1708.9844,0.012559
1710.8481,0.011186
1712.7117,0.010117
1714.5754,0.009337
1716.4391,0.008910
1718.3027,0.008610
1720.1664,0.008252
1722.0301,0.007449
1723.8937,0.006962
1725.7574,0.006766
1727.6211,0.006494
1729.4848,0.006271
1731.3484,0.006158
1733.2121,0.006268
1735.0758,0.007155
1736.9394,0.006816
1738.8031,0.006411
1740.6668,0.006602
1742.5304,0.006673
1744.3941,0.006575
1746.2578,0.006318
1748.1214,0.006023
1749.9851,0.005696
1751.8488,0.005205
1753.7125,0.004571
1755.5761,0.003808
1757.4398,0.003577
1759.3035,0.003222
1761.1671,0.002934
1763.0308,0.003026
1764.8945,0.002730
1766.7581,0.002231
1768.6218,0.002173
1770.4855,0.002169
1772.3491,0.002568
1774.2128,0.002700
1776.0765,0.002355
1777.9401,0.002079
1779.8038,0.002015
1781.6675,0.002241
1783.5312,0.002183
1785.3948,0.001954
1787.2585,0.002077
1789.1222,0.002043
1790.9858,0.002001
1792.8495,0.002359
1794.7132,0.002401
1796.5768,0.001994
1798.4405,0.001678
1800.3042,0.001643
1802.1678,0.001818
1804.0315,0.001782
1805.8952,0.001683
1807.7589,0.001835
1809.6225,0.001918
1811.4862,0.001790
1813.3499,0.001710
1815.2135,0.001656
1817.0772,0.001819
1818.9409,0.001836
1820.8045,0.001713
1822.6682,0.001623
1824.5319,0.001636
1826.3955,0.001762
1828.2592,0.001701
1830.1229,0.001951
1831.9865,0.002292
1833.8502,0.002103
1835.7139,0.001785
1837.5776,0.001755
1839.4412,0.001836
1841.3049,0.001689
1843.1686,0.001812
1845.0322,0.002213
1846.8959,0.002302
1848.7596,0.002035
1850.6232,0.001792
1852.4869,0.001929
1854.3506,0.002273
1856.2142,0.002136
1858.0779,0.001876
1859.9416,0.001928
1861.8052,0.002011
1863.6689,0.001917
1865.5326,0.001869
1867.3963,0.001990
1869.2599,0.002346
1871.1236,0.002409
1872.9873,0.002132
1874.8509,0.002101
1876.7146,0.002341
1878.5783,0.002159
1880.4419,0.001819
1882.3056,0.001869
1884.1693,0.002094
1886.0329,0.002201
1887.8966,0.002241
1889.7603,0.002275
1891.6240,0.002536
1893.4876,0.002803
1895.3513,0.002576
1897.2150,0.002303
1899.0786,0.002583
1900.9423,0.003022
1902.8060,0.003058
1904.6696,0.002739
1906.5333,0.002598
1908.3970,0.002601
1910.2606,0.002680
1912.1243,0.002690
1913.9880,0.002829
1915.8516,0.002606
1917.7153,0.002355
1919.5790,0.002595
1921.4427,0.002368
1923.3063,0.002441
1925.1700,0.003091
1927.0337,0.003387
1928.8973,0.003539
1930.7610,0.003350
1932.6247,0.003054
1934.4883,0.003101
1936.3520,0.003763
1938.2157,0.003971
1940.0793,0.003607
1941.9430,0.003801
1943.8067,0.004077
1945.6704,0.003845
1947.5340,0.003688
1949.3977,0.003580
1951.2614,0.003302
1953.1250,0.003968
1954.9887,0.004596
1956.8524,0.003991
1958.7160,0.003657
1960.5797,0.003874
1962.4434,0.004005
1964.3070,0.004526
1966.1707,0.005079
1968.0344,0.005545
1969.8980,0.005685
1971.7617,0.005235
1973.6254,0.005536
1975.4891,0.006243
1977.3527,0.006736
1979.2164,0.007625
1981.0801,0.007940
1982.9437,0.007449
1984.8074,0.007041
1986.6711,0.006104
1988.5347,0.004853
1990.3984,0.005393
1992.2621,0.006276
1994.1257,0.005491
1995.9894,0.005235
1997.8531,0.006112
1999.7167,0.006351
2001.5804,0.005653
2003.4441,0.005393
2005.3078,0.005750
2007.1714,0.006148
2009.0351,0.006280
2010.8988,0.006722
2012.7624,0.007171
2014.6261,0.006070
2016.4898,0.004972
2018.3534,0.005558
2020.2171,0.007386
2022.0808,0.007991
2023.9444,0.007063
2025.8081,0.007210
2027.6718,0.008070
2029.5355,0.008280
2031.3991,0.007609
2033.2628,0.008444
2035.1265,0.009877
2036.9901,0.009287
2038.8538,0.009011
2040.7175,0.009202
2042.5811,0.009236
2044.4448,0.010042
2046.3085,0.010064
2048.1721,0.009717
2050.0358,0.010589
2051.8995,0.010962
2053.7631,0.010424
2055.6268,0.010197
2057.4905,0.009845
2059.3542,0.009272
2061.2178,0.009613
2063.0815,0.009993
2064.9452,0.009606
2066.8088,0.009251
2068.6725,0.009765
2070.5362,0.010149
2072.3998,0.009597
2074.2635,0.009107
2076.1272,0.008895
2077.9908,0.008495
2079.8545,0.008729
2081.7182,0.009323
2083.5819,0.009230
2085.4455,0.008318
2087.3092,0.007674
2089.1729,0.007698
2091.0365,0.007916
2092.9002,0.007966
2094.7639,0.007827
2096.6275,0.008024
2098.4912,0.008254
2100.3549,0.008208
2102.2185,0.008635
2104.0822,0.008971
2105.9459,0.008810
2107.8095,0.008709
2109.6732,0.008823
2111.5369,0.008220
2113.4006,0.007450
2115.2642,0.007457
2117.1279,0.007616
2118.9916,0.007497
2120.8552,0.007136
2122.7189,0.006924
2124.5826,0.007183
2126.4462,0.007271
2128.3099,0.006725
2130.1736,0.005830
2132.0372,0.005401
2133.9009,0.006426
2135.7646,0.007287
2137.6282,0.007238
2139.4919,0.007656
2141.3556,0.008413
2143.2193,0.008202
2145.0829,0.008267
2146.9466,0.008677
2148.8103,0.008776
2150.6739,0.008838
2152.5376,0.007501
2154.4013,0.006523
2156.2649,0.007785
2158.1286,0.009695
2159.9923,0.010703
2161.8559,0.012258
2163.7196,0.012456
2165.5833,0.011756
2167.4470,0.011706
2169.3106,0.011002
2171.1743,0.009916
2173.0380,0.009768
2174.9016,0.009977
2176.7653,0.010134
2178.6290,0.009371
2180.4926,0.009506
2182.3563,0.009496
2184.2200,0.009952
2186.0836,0.011022
2187.9473,0.010669
2189.8110,0.009463
2191.6746,0.009452
2193.5383,0.009984
2195.4020,0.010579
2197.2657,0.010880
2199.1293,0.010962
2200.9930,0.010325
2202.8567,0.009829
2204.7203,0.009534
2206.5840,0.009260
2208.4477,0.009644
2210.3113,0.009829
2212.1750,0.009606
2214.0387,0.009515
2215.9023,0.009036
2217.7660,0.008815
2219.6297,0.009317
2221.4934,0.010172
2223.3570,0.009914
2225.2207,0.008890
2227.0844,0.008477
2228.9480,0.009335
2230.8117,0.009814
2232.6754,0.009795
2234.5390,0.010058
2236.4027,0.010064
2238.2664,0.009284
2240.1300,0.008848
2241.9937,0.008901
2243.8574,0.008847
2245.7210,0.008777
2247.5847,0.008360
2249.4484,0.008157
2251.3121,0.008515
2253.1757,0.008516
2255.0394,0.008754
2256.9031,0.008967
2258.7667,0.008925
2260.6304,0.008869
2262.4941,0.009128
2264.3577,0.009195
2266.2214,0.009020
2268.0851,0.009060
2269.9487,0.008980
2271.8124,0.008803
2273.6761,0.008734
2275.5397,0.009191
2277.4034,0.009403
2279.2671,0.009125
2281.1308,0.009045
2282.9944,0.009119
2284.8581,0.009259
2286.7218,0.009127
2288.5854,0.008917
2290.4491,0.008708
2292.3128,0.008131
2294.1764,0.008163
2296.0401,0.008316
2297.9038,0.008024
2299.7674,0.007905
2301.6311,0.007850
2303.4948,0.007848
2305.3585,0.008066
2307.2221,0.008030
2309.0858,0.007880
2310.9495,0.008291
2312.8131,0.008181
2314.6768,0.007773
2316.5405,0.007633
2318.4041,0.007735
2320.2678,0.008526
2322.1315,0.009535
2323.9951,0.009304
2325.8588,0.008328
2327.7225,0.007263
2329.5861,0.006867
2331.4498,0.007568
2333.3135,0.007759
2335.1772,0.007457
2337.0408,0.007876
2338.9045,0.008367
2340.7682,0.008465
2342.6318,0.008573
2344.4955,0.008387
2346.3592,0.007921
2348.2228,0.006992
2350.0865,0.005875
2351.9502,0.005631
2353.8138,0.006159
2355.6775,0.006609
2357.5412,0.007015
2359.4049,0.007612
2361.2685,0.008114
2363.1322,0.008272
2364.9959,0.008794
2366.8595,0.009252
2368.7232,0.009127
2370.5869,0.008862
2372.4505,0.008653
2374.3142,0.008590
2376.1779,0.008540
2378.0415,0.008363
2379.9052,0.007992
2381.7689,0.007350
2383.6325,0.006935
2385.4962,0.007055
2387.3599,0.006828
2389.2236,0.006625
2391.0872,0.006842
2392.9509,0.006772
2394.8146,0.006805
2396.6782,0.007013
2398.5419,0.007151
2400.4056,0.007089
2402.2692,0.007089
2404.1329,0.007229
2405.9966,0.007280
2407.8602,0.007556
2409.7239,0.007883
2411.5876,0.007882
2413.4512,0.007529
2415.3149,0.007303
2417.1786,0.007397
2419.0423,0.007717
2420.9059,0.007751
2422.7696,0.007570
2424.6333,0.007537
2426.4969,0.007614
2428.3606,0.007939
2430.2243,0.008179
2432.0879,0.007823
2433.9516,0.007712
2435.8153,0.007981
2437.6789,0.008091
2439.5426,0.008124
2441.4063,0.008385
2443.2700,0.008280
2445.1336,0.008169
2446.9973,0.008229
2448.8610,0.008507
2450.7246,0.008607
2452.5883,0.008565
2454.4520,0.008611
2456.3156,0.008512
2458.1793,0.008552
2460.0430,0.008434
2461.9066,0.008079
2463.7703,0.007900
2465.6340,0.008190
2467.4976,0.008828
2469.3613,0.008985
2471.2250,0.008806
2473.0887,0.008640
2474.9523,0.008455
2476.8160,0.008568
2478.6797,0.008656
2480.5433,0.008610
2482.4070,0.008622
2484.2707,0.008410
2486.1343,0.008633
2487.9980,0.008916
2489.8617,0.009126
2491.7253,0.009059
2493.5890,0.008790
2495.4527,0.009046
2497.3164,0.009330
2499.1800,0.009314
2501.0437,0.009327
2502.9074,0.009553
2504.7710,0.009696
2506.6347,0.009744
2508.4984,0.009475
2510.3620,0.009148
2512.2257,0.009212
2514.0894,0.009364
2515.9530,0.009424
2517.8167,0.009428
2519.6804,0.009605
2521.5440,0.009586
2523.4077,0.009488
2525.2714,0.009314
2527.1351,0.009635
2528.9987,0.010222
2530.8624,0.010070
2532.7261,0.010019
2534.5897,0.009973
2536.4534,0.009619
2538.3171,0.009660
2540.1807,0.010014
2542.0444,0.010208
2543.9081,0.010388
2545.7717,0.010345
2547.6354,0.010141
2549.4991,0.010241
2551.3627,0.010164
2553.2264,0.010161
2555.0901,0.010302
2556.9538,0.010608
2558.8174,0.010913
2560.6811,0.010575
2562.5448,0.010253
2564.4084,0.010658
2566.2721,0.010919
2568.1358,0.010857
2569.9994,0.010941
2571.8631,0.011061
2573.7268,0.011092
2575.5904,0.011064
2577.4541,0.010987
2579.3178,0.011023
2581.1815,0.011294
2583.0451,0.011674
2584.9088,0.011679
2586.7725,0.011799
2588.6361,0.011936
2590.4998,0.011769
2592.3635,0.011535
2594.2271,0.011828
2596.0908,0.012184
2597.9545,0.012167
2599.8181,0.011942
2601.6818,0.011920
2603.5455,0.012267
2605.4091,0.012490
2607.2728,0.012634
2609.1365,0.012824
2611.0002,0.012835
2612.8638,0.012694
2614.7275,0.012681
2616.5912,0.013140
2618.4548,0.013382
2620.3185,0.013385
2622.1822,0.013489
2624.0458,0.013506
2625.9095,0.013627
2627.7732,0.013813
2629.6368,0.013768
2631.5005,0.013926
2633.3642,0.014065
2635.2279,0.013953
2637.0915,0.014020
2638.9552,0.014202
2640.8189,0.014417
2642.6825,0.014592
2644.5462,0.014553
2646.4099,0.014778
2648.2735,0.014940
2650.1372,0.014811
2652.0009,0.014747
2653.8645,0.014840
2655.7282,0.014868
2657.5919,0.014897
2659.4555,0.015088
2661.3192,0.015141
2663.1829,0.015025
2665.0466,0.014995
2666.9102,0.014926
2668.7739,0.014963
2670.6376,0.015003
2672.5012,0.015166
2674.3649,0.015379
2676.2286,0.015428
2678.0922,0.015670
2679.9559,0.015866
2681.8196,0.015803
2683.6832,0.015833
2685.5469,0.015904
2687.4106,0.016132
2689.2742,0.016158
2691.1379,0.016209
2693.0016,0.016395
2694.8653,0.016522
2696.7289,0.016589
2698.5926,0.016754
2700.4563,0.016945
2702.3199,0.017078
2704.1836,0.017100
2706.0473,0.017287
2707.9109,0.017326
2709.7746,0.017408
2711.6383,0.017696
2713.5019,0.017817
2715.3656,0.017888
2717.2293,0.018015
2719.0930,0.018126
2720.9566,0.018340
2722.8203,0.018480
2724.6840,0.018615
2726.5476,0.018634
2728.4113,0.018668
2730.2750,0.018727
2732.1386,0.018892
2734.0023,0.019249
2735.8660,0.019534
2737.7296,0.019553
2739.5933,0.019549
2741.4570,0.019886
2743.3206,0.020180
2745.1843,0.020236
2747.0480,0.020363
2748.9117,0.020454
2750.7753,0.020694
2752.6390,0.020715
2754.5027,0.020777
2756.3663,0.020966
2758.2300,0.021074
2760.0937,0.021288
2761.9573,0.021425
2763.8210,0.021602
2765.6847,0.021829
2767.5483,0.021903
2769.4120,0.022197
2771.2757,0.022418
2773.1394,0.022508
2775.0030,0.022801
2776.8667,0.023016
2778.7304,0.022901
2780.5940,0.023003
2782.4577,0.023383
2784.3214,0.023610
2786.1850,0.023968
2788.0487,0.024461
2789.9124,0.024634
2791.7760,0.024664
2793.6397,0.024625
2795.5034,0.025020
2797.3670,0.025234
2799.2307,0.025162
2801.0944,0.025279
2802.9581,0.025452
2804.8217,0.025899
2806.6854,0.026405
2808.5491,0.026603
2810.4127,0.026625
2812.2764,0.026794
2814.1401,0.027131
2816.0037,0.027466
2817.8674,0.027774
2819.7311,0.028012
2821.5947,0.028301
2823.4584,0.028562
2825.3221,0.028705
2827.1857,0.028785
2829.0494,0.029114
2830.9131,0.029632
2832.7768,0.030220
2834.6404,0.030588
2836.5041,0.031036
2838.3678,0.031641
2840.2314,0.032119
2842.0951,0.032671
2843.9588,0.033307
2845.8224,0.034186
2847.6861,0.035429
2849.5498,0.036201
2851.4134,0.036693
2853.2771,0.037033
2855.1408,0.037056
2857.0045,0.037008
2858.8681,0.037026
2860.7318,0.037019
2862.5955,0.037191
2864.4591,0.037434
2866.3228,0.038116
2868.1865,0.038571
2870.0501,0.038982
2871.9138,0.039508
2873.7775,0.039585
2875.6411,0.039311
2877.5048,0.039498
2879.3685,0.039750
2881.2321,0.039844
2883.0958,0.039673
2884.9595,0.039573
2886.8232,0.039687
2888.6868,0.039924
2890.5505,0.040017
2892.4142,0.040410
2894.2778,0.040781
2896.1415,0.041018
2898.0052,0.041194
2899.8688,0.041447
2901.7325,0.041850
2903.5962,0.042335
2905.4598,0.042799
2907.3235,0.043168
2909.1872,0.043732
2911.0509,0.044669
2912.9145,0.045503
2914.7782,0.046230
2916.6419,0.046831
2918.5055,0.047324
2920.3692,0.048099
2922.2329,0.048785
2924.0965,0.048946
2925.9602,0.049066
2927.8239,0.048992
2929.6875,0.048535
2931.5512,0.047905
2933.4149,0.047846
2935.2785,0.047431
2937.1422,0.046957
2939.0059,0.046607
2940.8696,0.046089
2942.7332,0.045645
2944.5969,0.045347
2946.4606,0.045048
2948.3242,0.045233
2950.1879,0.045337
2952.0516,0.045026
2953.9152,0.045016
2955.7789,0.045271
2957.6426,0.045318
2959.5062,0.045320
2961.3699,0.045063
2963.2336,0.044548
2965.0972,0.044276
2966.9609,0.043993
2968.8246,0.043460
2970.6883,0.043062
2972.5519,0.042977
2974.4156,0.042642
2976.2793,0.042302
2978.1429,0.041878
2980.0066,0.041314
2981.8703,0.041000
2983.7339,0.040815
2985.5976,0.040733
2987.4613,0.040319
2989.3249,0.039935
2991.1886,0.039788
2993.0523,0.039760
2994.9160,0.039555
2996.7796,0.039511
2998.6433,0.039736
3000.5070,0.039755
3002.3706,0.039660
3004.2343,0.039907
3006.0980,0.040256
3007.9616,0.040672
3009.8253,0.040992
3011.6890,0.041115
3013.5526,0.040829
3015.4163,0.040918
3017.2800,0.041375
3019.1436,0.041934
3021.0073,0.042224
3022.8710,0.042511
3024.7347,0.043038
3026.5983,0.043564
3028.4620,0.043942
3030.3257,0.044470
3032.1893,0.044889
3034.0530,0.045151
3035.9167,0.045330
3037.7803,0.045460
3039.6440,0.045904
3041.5077,0.046730
3043.3713,0.047115
3045.2350,0.047139
3047.0987,0.047495
3048.9624,0.048071
3050.8260,0.048594
3052.6897,0.049214
3054.5534,0.049723
3056.4170,0.049989
3058.2807,0.049959
3060.1444,0.050023
3062.0080,0.050401
3063.8717,0.050913
3065.7354,0.051451
3067.5990,0.051415
3069.4627,0.051136
3071.3264,0.051557
3073.1900,0.051984
3075.0537,0.052351
3076.9174,0.052357
3078.7811,0.052328
3080.6447,0.052377
3082.5084,0.052629
3084.3721,0.052715
3086.2357,0.052563
3088.0994,0.052499
3089.9631,0.052629
3091.8267,0.052496
3093.6904,0.052469
3095.5541,0.052696
3097.4177,0.053262
3099.2814,0.053436
3101.1451,0.053187
3103.0087,0.053334
3104.8724,0.053804
3106.7361,0.054003
3108.5998,0.054100
3110.4634,0.054493
3112.3271,0.055009
3114.1908,0.055133
3116.0544,0.055225
3117.9181,0.055018
3119.7818,0.054880
3121.6454,0.055120
3123.5091,0.055545
3125.3728,0.055954
3127.2364,0.056577
3129.1001,0.056891
3130.9638,0.057013
3132.8275,0.057689
3134.6911,0.058324
3136.5548,0.058837
3138.4185,0.059147
3140.2821,0.059204
3142.1458,0.059738
3144.0095,0.060115
3145.8731,0.060608
3147.7368,0.061017
3149.6005,0.061463
3151.4641,0.062109
3153.3278,0.062470
3155.1915,0.062727
3157.0551,0.063254
3158.9188,0.063973
3160.7825,0.064733
3162.6462,0.065101
3164.5098,0.065384
3166.3735,0.065788
3168.2372,0.066254
3170.1008,0.066393
3171.9645,0.066740
3173.8282,0.067090
3175.6918,0.067472
3177.5555,0.068411
3179.4192,0.069081
3181.2828,0.068992
3183.1465,0.069465
3185.0102,0.070596
3186.8739,0.070807
3188.7375,0.070593
3190.6012,0.071167
3192.4649,0.071452
3194.3285,0.071529
3196.1922,0.071814
3198.0559,0.071917
3199.9195,0.071960
3201.7832,0.072228
3203.6469,0.072704
3205.5105,0.072999
3207.3742,0.072971
3209.2379,0.073342
3211.1015,0.073592
3212.9652,0.073712
3214.8289,0.073597
3216.6926,0.073668
3218.5562,0.074133
3220.4199,0.074286
3222.2836,0.074457
3224.1472,0.074842
3226.0109,0.074865
3227.8746,0.075242
3229.7382,0.075816
3231.6019,0.075625
3233.4656,0.075484
3235.3292,0.076150
3237.1929,0.076250
3239.0566,0.076101
3240.9202,0.076125
3242.7839,0.076253
3244.6476,0.076555
3246.5113,0.077048
3248.3749,0.077227
3250.2386,0.077222
3252.1023,0.077593
3253.9659,0.078167
3255.8296,0.078231
3257.6933,0.078137
3259.5569,0.078195
3261.4206,0.078357
3263.2843,0.078566
3265.1479,0.078703
3267.0116,0.078790
3268.8753,0.078641
3270.7390,0.078457
3272.6026,0.078672
3274.4663,0.078604
3276.3300,0.078259
3278.1936,0.078224
3280.0573,0.078157
3281.9210,0.077851
3283.7846,0.077798
3285.6483,0.077504
3287.5120,0.076931
3289.3756,0.076656
3291.2393,0.076602
3293.1030,0.076319
3294.9666,0.076177
3296.8303,0.076020
3298.6940,0.075605
3300.5577,0.074986
3302.4213,0.074376
3304.2850,0.074224
3306.1487,0.073963
3308.0123,0.073664
3309.8760,0.073604
3311.7397,0.073244
3313.6033,0.073142
3315.4670,0.072779
3317.3307,0.072261
3319.1943,0.072221
3321.0580,0.072042
3322.9217,0.071876
3324.7854,0.071587
3326.6490,0.071135
3328.5127,0.070931
3330.3764,0.070578
3332.2400,0.070046
3334.1037,0.069902
3335.9674,0.069932
3337.8310,0.069747
3339.6947,0.069633
3341.5584,0.069475
3343.4220,0.068947
3345.2857,0.068763
3347.1494,0.068821
3349.0130,0.068336
3350.8767,0.067955
3352.7404,0.068354
3354.6041,0.068313
3356.4677,0.067553
3358.3314,0.067250
3360.1951,0.067000
3362.0587,0.066642
3363.9224,0.066620
3365.7861,0.066390
3367.6497,0.065834
3369.5134,0.065284
3371.3771,0.065358
3373.2407,0.065448
3375.1044,0.065095
3376.9681,0.065199
3378.8317,0.065236
3380.6954,0.064431
3382.5591,0.063821
3384.4228,0.063781
3386.2864,0.064025
3388.1501,0.064128
3390.0138,0.063406
3391.8774,0.062626
3393.7411,0.062652
3395.6048,0.062784
3397.4684,0.061916
3399.3321,0.061265
3401.1958,0.061480
3403.0594,0.061049
3404.9231,0.060597
3406.7868,0.060038
3408.6505,0.059331
3410.5141,0.059227
3412.3778,0.059324
3414.2415,0.059178
3416.1051,0.058928
3417.9688,0.058703
3419.8325,0.058574
3421.6961,0.058362
3423.5598,0.057801
3425.4235,0.056607
3427.2871,0.055855
3429.1508,0.055609
3431.0145,0.055385
3432.8781,0.055591
3434.7418,0.055873
3436.6055,0.055022
3438.4692,0.053941
3440.3328,0.053943
3442.1965,0.054027
3444.0602,0.053536
3445.9238,0.053038
3447.7875,0.052676
3449.6512,0.052540
3451.5148,0.052150
3453.3785,0.051526
3455.2422,0.050720
3457.1058,0.050001
3458.9695,0.049833
3460.8332,0.050083
3462.6969,0.049435
3464.5605,0.048128
3466.4242,0.047525
3468.2879,0.047938
3470.1515,0.047730
3472.0152,0.046315
3473.8789,0.045745
3475.7425,0.045858
3477.6062,0.045245
3479.4699,0.045313
3481.3335,0.045526
3483.1972,0.044842
3485.0609,0.043483
3486.9245,0.042890
3488.7882,0.042865
3490.6519,0.042356
3492.5156,0.041574
3494.3792,0.041156
3496.2429,0.041067
3498.1066,0.040779
3499.9702,0.039943
3501.8339,0.039286
3503.6976,0.039195
3505.5612,0.038916
3507.4249,0.037520
3509.2886,0.036561
3511.1522,0.036527
3513.0159,0.036605
3514.8796,0.036298
3516.7432,0.035734
3518.6069,0.035226
3520.4706,0.034311
3522.3343,0.033118
3524.1979,0.032915
3526.0616,0.032965
3527.9253,0.032759
3529.7889,0.032044
3531.6526,0.031347
3533.5163,0.030580
3535.3799,0.030119
3537.2436,0.030016
3539.1073,0.029393
3540.9709,0.028171
3542.8346,0.027840
3544.6983,0.027801
3546.5620,0.027252
3548.4256,0.026929
3550.2893,0.026481
3552.1530,0.026035
3554.0166,0.025353
3555.8803,0.024499
3557.7440,0.023856
3559.6076,0.023261
3561.4713,0.022594
3563.3350,0.021604
3565.1986,0.020593
3567.0623,0.020062
3568.9260,0.020454
3570.7896,0.020362
3572.6533,0.019773
3574.5170,0.018872
3576.3807,0.017933
3578.2443,0.017370
3580.1080,0.017202
3581.9717,0.016708
3583.8353,0.015827
3585.6990,0.015148
3587.5627,0.015247
3589.4263,0.015035
3591.2900,0.014012
3593.1537,0.012910
3595.0173,0.012984
3596.8810,0.013661
3598.7447,0.013289
3600.6084,0.012381
3602.4720,0.011304
3604.3357,0.009960
3606.1994,0.009005
3608.0630,0.008713
3609.9267,0.008636
3611.7904,0.008292
3613.6540,0.007783
3615.5177,0.007399
3617.3814,0.007303
3619.2450,0.007416
3621.1087,0.006938
3622.9724,0.005689
3624.8360,0.005195
3626.6997,0.004866
3628.5634,0.004468
3630.4271,0.005013
3632.2907,0.004567
3634.1544,0.003498
3636.0181,0.002887
3637.8817,0.001975
3639.7454,0.001206
3641.6091,0.001276
3643.4727,0.001175
3645.3364,0.000941
3647.2001,0.000415
3649.0637,-0.000142
3650.9274,-0.000551
3652.7911,-0.000501
3654.6547,-0.000595
3656.5184,-0.001478
3658.3821,-0.001575
3660.2458,-0.001632
3662.1094,-0.002209
3663.9731,-0.002650
3665.8368,-0.002689
3667.7004,-0.003166
3669.5641,-0.004019
3671.4278,-0.003964
3673.2914,-0.003817
3675.1551,-0.004664
3677.0188,-0.004745
3678.8824,-0.003803
3680.7461,-0.004001
3682.6098,-0.004301
3684.4735,-0.004455
3686.3371,-0.004647
3688.2008,-0.005142
3690.0645,-0.005439
3691.9281,-0.004928
3693.7918,-0.005110
3695.6555,-0.005386
3697.5191,-0.005124
3699.3828,-0.005211
3701.2465,-0.005820
3703.1101,-0.005735
3704.9738,-0.005138
3706.8375,-0.005306
3708.7011,-0.005620
3710.5648,-0.005891
3712.4285,-0.006053
3714.2922,-0.005554
3716.1558,-0.005495
3718.0195,-0.005862
3719.8832,-0.006211
3721.7468,-0.006366
3723.6105,-0.006215
3725.4742,-0.006290
3727.3378,-0.006177
3729.2015,-0.005676
3731.0652,-0.005755
3732.9288,-0.006422
3734.7925,-0.006290
3736.6562,-0.006021
3738.5199,-0.005824
3740.3835,-0.005890
3742.2472,-0.006013
3744.1109,-0.006705
3745.9745,-0.006310
3747.8382,-0.005665
3749.7019,-0.006366
3751.5655,-0.006447
3753.4292,-0.005679
3755.2929,-0.005245
3757.1565,-0.005519
3759.0202,-0.005944
3760.8839,-0.006103
3762.7475,-0.005703
3764.6112,-0.005768
3766.4749,-0.005905
3768.3386,-0.005835
3770.2022,-0.006180
3772.0659,-0.006002
3773.9296,-0.005849
3775.7932,-0.005750
3777.6569,-0.005614
3779.5206,-0.005724
3781.3842,-0.005463
3783.2479,-0.005379
3785.1116,-0.005710
3786.9752,-0.005598
3788.8389,-0.005505
3790.7026,-0.005439
3792.5662,-0.005619
3794.4299,-0.006059
3796.2936,-0.006191
3798.1573,-0.005926
3800.0209,-0.006015
3801.8846,-0.006120
3803.7483,-0.005248
3805.6119,-0.005358
3807.4756,-0.005993
3809.3393,-0.005768
3811.2029,-0.005603
3813.0666,-0.005541
3814.9303,-0.005647
3816.7939,-0.005816
3818.6576,-0.005474
3820.5213,-0.006162
3822.3850,-0.006338
3824.2486,-0.005811
3826.1123,-0.006081
3827.9760,-0.005661
3829.8396,-0.005296
3831.7033,-0.006010
3833.5670,-0.006145
3835.4306,-0.005752
3837.2943,-0.005899
3839.1580,-0.005748
3841.0216,-0.005331
3842.8853,-0.005750
3844.7490,-0.005939
3846.6126,-0.005366
3848.4763,-0.005445
3850.3400,-0.005845
3852.2037,-0.006532
3854.0673,-0.006754
3855.9310,-0.005157
3857.7947,-0.004711
3859.6583,-0.005260
3861.5220,-0.005923
3863.3857,-0.005978
3865.2493,-0.005371
3867.1130,-0.005117
3868.9767,-0.005604
3870.8403,-0.005755
3872.7040,-0.005136
3874.5677,-0.005389
3876.4314,-0.005291
3878.2950,-0.005756
3880.1587,-0.006463
3882.0224,-0.005756
3883.8860,-0.005034
3885.7497,-0.005215
3887.6134,-0.004805
3889.4770,-0.004888
3891.3407,-0.005736
3893.2044,-0.005331
3895.0680,-0.005087
3896.9317,-0.005887
3898.7954,-0.005823
3900.6590,-0.005217
3902.5227,-0.004992
3904.3864,-0.005316
3906.2501,-0.004735
3908.1137,-0.004380
3909.9774,-0.004881
3911.8411,-0.005150
3913.7047,-0.005450
3915.5684,-0.005625
3917.4321,-0.005637
3919.2957,-0.005169
3921.1594,-0.004778
3923.0231,-0.004755
3924.8867,-0.004658
3926.7504,-0.004488
3928.6141,-0.004924
3930.4777,-0.005385
3932.3414,-0.005186
3934.2051,-0.004918
3936.0688,-0.004875
3937.9324,-0.005229
3939.7961,-0.005215
3941.6598,-0.004841
3943.5234,-0.004980
3945.3871,-0.004778
3947.2508,-0.004501
3949.1144,-0.004871
3950.9781,-0.004927
3952.8418,-0.004721
3954.7054,-0.004579
3956.5691,-0.004724
3958.4328,-0.004806
3960.2965,-0.004849
3962.1601,-0.004634
3964.0238,-0.004542
3965.8875,-0.004624
3967.7511,-0.004694
3969.6148,-0.004372
3971.4785,-0.004197
3973.3421,-0.004503
3975.2058,-0.004558
3977.0695,-0.004328
3978.9331,-0.004431
3980.7968,-0.004907
3982.6605,-0.005262
3984.5241,-0.005360
3986.3878,-0.005124
3988.2515,-0.004859
3990.1152,-0.005060
3991.9788,-0.004975
3993.8425,-0.004637
3995.7062,-0.004674
3997.5698,-0.004580
3999.4335,-0.004356
