Wavenumber,Intensity
650.4205,0.118220
652.2841,0.120044
654.1478,0.120591
656.0115,0.116883
657.8751,0.114786
659.7388,0.116072
661.6025,0.117180
663.4661,0.115610
665.3298,0.111137
667.1935,0.109028
669.0571,0.113637
670.9208,0.112386
672.7845,0.110552
674.6481,0.110734
676.5118,0.110554
678.3755,0.107971
680.2392,0.105163
682.1028,0.104450
683.9665,0.104503
685.8302,0.103530
687.6938,0.103242
689.5575,0.103882
691.4212,0.103587
693.2848,0.102205
695.1485,0.101055
697.0122,0.100472
698.8758,0.099502
700.7395,0.098409
702.6032,0.097886
704.4669,0.097440
706.3305,0.096976
708.1942,0.095220
710.0579,0.093258
711.9215,0.092572
713.7852,0.090957
715.6489,0.088001
717.5125,0.086421
719.3762,0.086331
721.2399,0.085496
723.1035,0.084482
724.9672,0.084012
726.8309,0.082803
728.6945,0.081877
730.5582,0.081648
732.4219,0.080638
734.2856,0.079723
736.1492,0.079549
738.0129,0.079387
739.8766,0.079029
741.7402,0.078902
743.6039,0.078550
745.4676,0.077172
747.3312,0.076192
749.1949,0.075783
751.0586,0.074831
752.9222,0.073973
754.7859,0.073329
756.6496,0.073100
758.5132,0.072884
760.3769,0.072291
762.2406,0.071650
764.1043,0.071118
765.9679,0.070646
767.8316,0.070149
769.6953,0.069630
771.5589,0.068815
773.4226,0.068136
775.2863,0.068091
777.1499,0.067620
779.0136,0.066455
780.8773,0.065546
782.7409,0.064872
784.6046,0.064153
786.4683,0.063503
788.3320,0.063098
790.1956,0.062766
792.0593,0.062061
793.9230,0.061270
795.7866,0.061057
797.6503,0.060936
799.5140,0.060260
801.3776,0.059925
803.2413,0.060015
805.1050,0.060088
806.9686,0.059749
808.8323,0.059260
810.6960,0.059097
812.5596,0.058925
814.4233,0.058668
816.2870,0.058164
818.1507,0.057300
820.0143,0.056756
821.8780,0.056204
823.7417,0.055485
825.6053,0.054852
827.4690,0.054085
829.3327,0.053390
831.1963,0.052941
833.0600,0.052202
834.9237,0.051368
836.7873,0.050852
838.6510,0.050239
840.5147,0.049563
842.3784,0.048855
844.2420,0.048163
846.1057,0.048097
847.9694,0.048148
849.8330,0.047961
851.6967,0.048024
853.5604,0.048086
855.4240,0.047866
857.2877,0.047732
859.1514,0.047806
861.0150,0.047970
862.8787,0.048203
864.7424,0.048563
866.6060,0.048984
868.4697,0.049226
870.3334,0.049499
872.1971,0.049863
874.0607,0.049971
875.9244,0.049928
877.7881,0.049776
879.6517,0.049656
881.5154,0.049429
883.3791,0.049156
885.2427,0.049038
887.1064,0.048977
888.9701,0.049033
890.8337,0.049152
892.6974,0.049084
894.5611,0.049083
896.4247,0.049110
898.2884,0.048996
900.1521,0.048764
902.0158,0.048586
903.8794,0.048437
905.7431,0.048318
907.6068,0.048314
909.4704,0.048537
911.3341,0.048930
913.1978,0.049305
915.0614,0.049658
916.9251,0.050101
918.7888,0.050580
920.6524,0.050926
922.5161,0.051099
924.3798,0.051422
926.2435,0.051681
928.1071,0.051806
929.9708,0.051994
931.8345,0.052205
933.6981,0.052398
935.5618,0.052826
937.4255,0.053523
939.2891,0.054243
941.1528,0.054970
943.0165,0.055798
944.8801,0.056627
946.7438,0.057437
948.6075,0.057999
950.4711,0.058336
952.3348,0.058694
954.1985,0.059221
956.0622,0.059994
957.9258,0.061195
959.7895,0.062853
961.6532,0.064983
963.5168,0.067173
965.3805,0.069061
967.2442,0.070634
969.1078,0.071732
970.9715,0.072202
972.8352,0.072427
974.6988,0.072976
976.5625,0.073845
978.4262,0.075059
980.2899,0.076563
982.1535,0.078112
984.0172,0.079694
985.8809,0.081294
987.7445,0.082883
989.6082,0.084390
991.4719,0.085988
993.3355,0.087657
995.1992,0.089291
997.0629,0.090921
998.9265,0.092481
1000.7902,0.093833
1002.6539,0.095235
1004.5175,0.096934
1006.3812,0.098897
1008.2449,0.101314
1010.1086,0.104186
1011.9722,0.107206
1013.8359,0.110409
1015.6996,0.113589
1017.5632,0.116509
1019.4269,0.119041
1021.2906,0.121184
1023.1542,0.122960
1025.0179,0.124442
1026.8816,0.125778
1028.7452,0.127081
1030.6089,0.128293
1032.4726,0.129082
1034.3362,0.129436
1036.1999,0.129714
1038.0636,0.129760
1039.9273,0.129427
1041.7909,0.128912
1043.6546,0.128346
1045.5183,0.127856
1047.3819,0.127624
1049.2456,0.127707
1051.1093,0.128020
1052.9729,0.128339
1054.8366,0.128699
1056.7003,0.129008
1058.5639,0.129249
1060.4276,0.129378
1062.2913,0.129420
1064.1550,0.129664
1066.0186,0.130121
1067.8823,0.130342
1069.7460,0.130269
1071.6096,0.130176
1073.4733,0.129698
1075.3370,0.128439
1077.2006,0.126503
1079.0643,0.124002
1080.9280,0.121100
1082.7916,0.117844
1084.6553,0.114337
1086.5190,0.110924
1088.3826,0.107797
1090.2463,0.104981
1092.1100,0.102548
1093.9737,0.100508
1095.8373,0.098720
1097.7010,0.097081
1099.5647,0.095553
1101.4283,0.094169
1103.2920,0.093052
1105.1557,0.092252
1107.0193,0.091633
1108.8830,0.091102
1110.7467,0.090658
1112.6103,0.090210
1114.4740,0.089564
1116.3377,0.088724
1118.2014,0.087781
1120.0650,0.086675
1121.9287,0.085590
1123.7924,0.084513
1125.6560,0.083367
1127.5197,0.082129
1129.3834,0.080807
1131.2470,0.079357
1133.1107,0.077828
1134.9744,0.076362
1136.8380,0.075007
1138.7017,0.073677
1140.5654,0.072543
1142.4290,0.071807
1144.2927,0.071455
1146.1564,0.071314
1148.0201,0.071369
1149.8837,0.071541
1151.7474,0.071671
1153.6111,0.071813
1155.4747,0.071836
1157.3384,0.071542
1159.2021,0.071076
1161.0657,0.070635
1162.9294,0.070069
1164.7931,0.069296
1166.6567,0.068297
1168.5204,0.066999
1170.3841,0.065353
1172.2477,0.063428
1174.1114,0.061415
1175.9751,0.059378
1177.8388,0.057641
1179.7024,0.056484
1181.5661,0.055832
1183.4298,0.055639
1185.2934,0.055828
1187.1571,0.056290
1189.0208,0.056982
1190.8844,0.057878
1192.7481,0.058846
1194.6118,0.059870
1196.4754,0.061127
1198.3391,0.062604
1200.2028,0.064155
1202.0665,0.065660
1203.9301,0.067058
1205.7938,0.068261
1207.6575,0.069308
1209.5211,0.070281
1211.3848,0.071172
1213.2485,0.072002
1215.1121,0.072991
1216.9758,0.074181
1218.8395,0.075390
1220.7031,0.076518
1222.5668,0.077678
1224.4305,0.078849
1226.2941,0.079918
1228.1578,0.080709
1230.0215,0.081332
1231.8852,0.081928
1233.7488,0.082359
1235.6125,0.082659
1237.4762,0.082745
1239.3398,0.082545
1241.2035,0.082203
1243.0672,0.081663
1244.9308,0.081007
1246.7945,0.080221
1248.6582,0.079324
1250.5218,0.078371
1252.3855,0.077418
1254.2492,0.076485
1256.1129,0.075658
1257.9765,0.074917
1259.8402,0.074199
1261.7039,0.073607
1263.5675,0.073011
1265.4312,0.072374
1267.2949,0.071861
1269.1585,0.071507
1271.0222,0.071131
1272.8859,0.070725
1274.7495,0.070437
1276.6132,0.070233
1278.4769,0.070114
1280.3405,0.070021
1282.2042,0.069855
1284.0679,0.069685
1285.9316,0.069748
1287.7952,0.069989
1289.6589,0.070057
1291.5226,0.070063
1293.3862,0.070202
1295.2499,0.070489
1297.1136,0.070907
1298.9772,0.071363
1300.8409,0.071730
1302.7046,0.072038
1304.5682,0.072394
1306.4319,0.072701
1308.2956,0.072973
1310.1592,0.073176
1312.0229,0.073362
1313.8866,0.073377
1315.7503,0.073113
1317.6139,0.072906
1319.4776,0.072601
1321.3413,0.071942
1323.2049,0.071213
1325.0686,0.070555
1326.9323,0.069948
1328.7959,0.069634
1330.6596,0.069473
1332.5233,0.069167
1334.3869,0.068806
1336.2506,0.068840
1338.1143,0.069514
1339.9780,0.070385
1341.8416,0.070149
1343.7053,0.069493
1345.5690,0.069321
1347.4326,0.069290
1349.2963,0.069269
1351.1600,0.069145
1353.0236,0.069277
1354.8873,0.069714
1356.7510,0.069982
1358.6146,0.070228
1360.4783,0.071527
1362.3420,0.074107
1364.2056,0.075730
1366.0693,0.076394
1367.9330,0.077685
1369.7967,0.078742
1371.6603,0.079705
1373.5240,0.082171
1375.3877,0.084260
1377.2513,0.084684
1379.1150,0.085401
1380.9787,0.085929
1382.8423,0.086010
1384.7060,0.086217
1386.5697,0.087830
1388.4333,0.088675
1390.2970,0.087195
1392.1607,0.086375
1394.0244,0.087542
1395.8880,0.088478
1397.7517,0.088291
1399.6154,0.088241
1401.4790,0.086509
1403.3427,0.085416
1405.2064,0.085287
1407.0700,0.084122
1408.9337,0.082522
1410.7974,0.081507
1412.6610,0.080252
1414.5247,0.078494
1416.3884,0.077696
1418.2520,0.079413
1420.1157,0.079980
1421.9794,0.077925
1423.8431,0.077580
1425.7067,0.077341
1427.5704,0.077179
1429.4341,0.078682
1431.2977,0.079456
1433.1614,0.079163
1435.0251,0.081410
1436.8887,0.086216
1438.7524,0.086156
1440.6161,0.085006
1442.4797,0.085046
1444.3434,0.084905
1446.2071,0.085416
1448.0707,0.086312
1449.9344,0.085218
1451.7981,0.082855
1453.6618,0.080821
1455.5254,0.081593
1457.3891,0.085395
1459.2528,0.082146
1461.1164,0.077509
1462.9801,0.075772
1464.8438,0.076521
1466.7074,0.074653
1468.5711,0.071286
1470.4348,0.069830
1472.2984,0.071633
1474.1621,0.071566
1476.0258,0.069967
1477.8895,0.068696
1479.7531,0.068253
1481.6168,0.069049
1483.4805,0.069401
1485.3441,0.070303
1487.2078,0.073819
1489.0715,0.079946
1490.9351,0.084267
1492.7988,0.083847
1494.6625,0.085917
1496.5261,0.093223
1498.3898,0.098501
1500.2535,0.099720
1502.1171,0.098805
1503.9808,0.099667
1505.8445,0.110537
1507.7082,0.123307
1509.5718,0.121492
1511.4355,0.120815
1513.2992,0.121568
1515.1628,0.122729
1517.0265,0.124646
1518.8902,0.124719
1520.7538,0.127508
1522.6175,0.130148
1524.4812,0.129263
1526.3448,0.130648
1528.2085,0.130419
1530.0722,0.128967
1531.9359,0.129371
1533.7995,0.131330
1535.6632,0.128152
1537.5269,0.125711
1539.3905,0.129349
1541.2542,0.132048
1543.1179,0.128752
1544.9815,0.125296
1546.8452,0.120854
1548.7089,0.117416
1550.5725,0.114373
1552.4362,0.110440
1554.2999,0.106354
1556.1635,0.102668
1558.0272,0.104005
1559.8909,0.104613
1561.7546,0.097666
1563.6182,0.093249
1565.4819,0.090360
1567.3456,0.088104
1569.2092,0.087091
1571.0729,0.084595
1572.9366,0.081325
1574.8002,0.080615
1576.6639,0.081501
1578.5276,0.079209
1580.3912,0.076946
1582.2549,0.076255
1584.1186,0.075911
1585.9822,0.075723
1587.8459,0.076173
1589.7096,0.077113
1591.5733,0.078233
1593.4369,0.079990
1595.3006,0.082074
1597.1643,0.084084
1599.0279,0.086239
1600.8916,0.089152
1602.7553,0.092490
1604.6189,0.095752
1606.4826,0.099359
1608.3463,0.103588
1610.2099,0.107114
1612.0736,0.109569
1613.9373,0.112138
1615.8010,0.118086
1617.6646,0.123877
1619.5283,0.123948
1621.3920,0.124893
1623.2556,0.128903
1625.1193,0.131072
1626.9830,0.132103
1628.8466,0.132744
1630.7103,0.131187
1632.5740,0.129388
1634.4376,0.130532
1636.3013,0.132590
1638.1650,0.129146
1640.0286,0.125141
1641.8923,0.121847
1643.7560,0.118735
1645.6197,0.117308
1647.4833,0.115234
1649.3470,0.110560
1651.2107,0.107610
1653.0743,0.107889
1654.9380,0.103237
1656.8017,0.097601
1658.6653,0.093063
1660.5290,0.089480
1662.3927,0.086202
1664.2563,0.082050
1666.1200,0.077831
1667.9837,0.074827
1669.8474,0.072211
1671.7110,0.068869
1673.5747,0.065572
1675.4384,0.062676
1677.3020,0.058700
1679.1657,0.054842
1681.0294,0.051501
1682.8930,0.049267
1684.7567,0.046601
1686.6204,0.042545
1688.4840,0.038871
1690.3477,0.035234
1692.2114,0.031622
1694.0750,0.028388
1695.9387,0.024677
1697.8024,0.021299
1699.6661,0.018495
1701.5297,0.015556
1703.3934,0.013311
1705.2571,0.011490
1707.1207,0.009712
1708.9844,0.008369
1710.8481,0.007346
1712.7117,0.006467
1714.5754,0.005551
1716.4391,0.005219
1718.3027,0.005010
1720.1664,0.004530
1722.0301,0.003819
1723.8937,0.003381
1725.7574,0.003103
1727.6211,0.002765
1729.4848,0.002485
1731.3484,0.002549
1733.2121,0.002437
1735.0758,0.002693
1736.9394,0.002497
1738.8031,0.002205
1740.6668,0.002211
1742.5304,0.002155
1744.3941,0.001892
1746.2578,0.001639
1748.1214,0.001533
1749.9851,0.001388
1751.8488,0.000820
1753.7125,0.000402
1755.5761,0.000127
1757.4398,0.000095
1759.3035,-0.000051
1761.1671,-0.000208
1763.0308,-0.000111
1764.8945,-0.000226
1766.7581,-0.000581
1768.6218,-0.000525
1770.4855,-0.000392
1772.3491,-0.000276
1774.2128,-0.000235
1776.0765,-0.000605
1777.9401,-0.000896
1779.8038,-0.000549
1781.6675,-0.000243
1783.5312,-0.000410
1785.3948,-0.000658
1787.2585,-0.000551
1789.1222,-0.000376
1790.9858,-0.000303
1792.8495,-0.000338
1794.7132,-0.000558
1796.5768,-0.000654
1798.4405,-0.000539
1800.3042,-0.000269
1802.1678,-0.000128
1804.0315,-0.000326
1805.8952,-0.000404
1807.7589,-0.000451
1809.6225,-0.000483
1811.4862,-0.000381
1813.3499,-0.000173
1815.2135,-0.000351
1817.0772,-0.000401
1818.9409,-0.000003
1820.8045,-0.000027
1822.6682,-0.000396
1824.5319,-0.000381
1826.3955,-0.000272
1828.2592,-0.000373
1830.1229,-0.000280
1831.9865,0.000001
1833.8502,0.000092
1835.7139,0.000080
1837.5776,-0.000040
1839.4412,0.000113
1841.3049,0.000114
1843.1686,0.000100
1845.0322,0.000579
1846.8959,0.000832
1848.7596,0.000482
1850.6232,0.000264
1852.4869,0.000095
1854.3506,0.000122
1856.2142,0.000369
1858.0779,0.000436
1859.9416,0.000309
1861.8052,0.000070
1863.6689,-0.000025
1865.5326,0.000443
1867.3963,0.000824
1869.2599,0.000711
1871.1236,0.000527
1872.9873,0.000604
1874.8509,0.000527
1876.7146,0.000220
1878.5783,0.000021
1880.4419,0.000397
1882.3056,0.000653
1884.1693,0.000459
1886.0329,0.000365
1887.8966,0.000420
1889.7603,0.000361
1891.6240,0.000667
1893.4876,0.001060
1895.3513,0.001038
1897.2150,0.000607
1899.0786,0.000798
1900.9423,0.001061
1902.8060,0.000784
1904.6696,0.000555
1906.5333,0.000533
1908.3970,0.000775
1910.2606,0.001184
1912.1243,0.001398
1913.9880,0.001538
1915.8516,0.001256
1917.7153,0.001079
1919.5790,0.001189
1921.4427,0.000798
1923.3063,0.000527
1925.1700,0.000489
1927.0337,0.000571
1928.8973,0.000935
1930.7610,0.000952
1932.6247,0.000935
1934.4883,0.001126
1936.3520,0.001314
1938.2157,0.001682
1940.0793,0.001326
1941.9430,0.000911
1943.8067,0.001405
1945.6704,0.001601
1947.5340,0.001265
1949.3977,0.002098
1951.2614,0.002739
1953.1250,0.001689
1954.9887,0.001006
1956.8524,0.001919
1958.7160,0.002373
1960.5797,0.001975
1962.4434,0.002090
1964.3070,0.002026
1966.1707,0.001912
1968.0344,0.001861
1969.8980,0.002547
1971.7617,0.003169
1973.6254,0.003518
1975.4891,0.003403
1977.3527,0.004892
1979.2164,0.006215
1981.0801,0.005326
1982.9437,0.004325
1984.8074,0.003831
1986.6711,0.003501
1988.5347,0.003217
1990.3984,0.003355
1992.2621,0.003598
1994.1257,0.003848
1995.9894,0.003911
1997.8531,0.003217
1999.7167,0.002790
2001.5804,0.002760
2003.4441,0.002827
2005.3078,0.003872
2007.1714,0.004685
2009.0351,0.003798
2010.8988,0.002714
2012.7624,0.003740
2014.6261,0.005420
2016.4898,0.005758
2018.3534,0.005295
2020.2171,0.006141
2022.0808,0.007716
2023.9444,0.007038
2025.8081,0.005534
2027.6718,0.005627
2029.5355,0.006445
2031.3991,0.006810
2033.2628,0.007437
2035.1265,0.007229
2036.9901,0.007441
2038.8538,0.008777
2040.7175,0.008728
2042.5811,0.008211
2044.4448,0.009661
2046.3085,0.010905
2048.1721,0.010586
2050.0358,0.010604
2051.8995,0.010528
2053.7631,0.009884
2055.6268,0.009741
2057.4905,0.009612
2059.3542,0.009756
2061.2178,0.009929
2063.0815,0.010080
2064.9452,0.010436
2066.8088,0.010146
2068.6725,0.009336
2070.5362,0.008360
2072.3998,0.007854
2074.2635,0.007880
2076.1272,0.007569
2077.9908,0.007206
2079.8545,0.007093
2081.7182,0.006700
2083.5819,0.005987
2085.4455,0.005985
2087.3092,0.006097
2089.1729,0.005451
2091.0365,0.004705
2092.9002,0.004431
2094.7639,0.004577
2096.6275,0.004585
2098.4912,0.004416
2100.3549,0.004559
2102.2185,0.004478
2104.0822,0.004272
2105.9459,0.004691
2107.8095,0.005214
2109.6732,0.005277
2111.5369,0.004969
2113.4006,0.004575
2115.2642,0.004257
2117.1279,0.003957
2118.9916,0.004182
2120.8552,0.003918
2122.7189,0.003393
2124.5826,0.003541
2126.4462,0.003290
2128.3099,0.002951
2130.1736,0.002686
2132.0372,0.002139
2133.9009,0.002326
2135.7646,0.003055
2137.6282,0.003441
2139.4919,0.004044
2141.3556,0.004602
2143.2193,0.004584
2145.0829,0.004803
2146.9466,0.005145
2148.8103,0.004991
2150.6739,0.004516
2152.5376,0.005113
2154.4013,0.006436
2156.2649,0.006721
2158.1286,0.006375
2159.9923,0.007344
2161.8559,0.008375
2163.7196,0.008015
2165.5833,0.008034
2167.4470,0.008255
2169.3106,0.007650
2171.1743,0.006871
2173.0380,0.007107
2174.9016,0.007566
2176.7653,0.007502
2178.6290,0.007252
2180.4926,0.007025
2182.3563,0.007243
2184.2200,0.007220
2186.0836,0.006599
2187.9473,0.006954
2189.8110,0.007249
2191.6746,0.006109
2193.5383,0.006063
2195.4020,0.006961
2197.2657,0.007334
2199.1293,0.007280
2200.9930,0.006730
2202.8567,0.005746
2204.7203,0.004948
2206.5840,0.005447
2208.4477,0.006222
2210.3113,0.006351
2212.1750,0.006237
2214.0387,0.006244
2215.9023,0.006455
2217.7660,0.006401
2219.6297,0.006482
2221.4934,0.006482
2223.3570,0.006213
2225.2207,0.006364
2227.0844,0.006456
2228.9480,0.006048
2230.8117,0.006242
2232.6754,0.006974
2234.5390,0.007001
2236.4027,0.006620
2238.2664,0.005936
2240.1300,0.005771
2241.9937,0.006259
2243.8574,0.006084
2245.7210,0.005668
2247.5847,0.005686
2249.4484,0.005924
2251.3121,0.006416
2253.1757,0.006265
2255.0394,0.005817
2256.9031,0.006400
2258.7667,0.006575
2260.6304,0.006374
2262.4941,0.006577
2264.3577,0.006251
2266.2214,0.006320
2268.0851,0.006775
2269.9487,0.006639
2271.8124,0.006560
2273.6761,0.006657
2275.5397,0.006982
2277.4034,0.007262
2279.2671,0.007412
2281.1308,0.007127
2282.9944,0.006770
2284.8581,0.006936
2286.7218,0.007195
2288.5854,0.006918
2290.4491,0.006578
2292.3128,0.006319
2294.1764,0.005946
2296.0401,0.006048
2297.9038,0.006216
2299.7674,0.006106
2301.6311,0.006120
2303.4948,0.006014
2305.3585,0.005588
2307.2221,0.005560
2309.0858,0.005932
2310.9495,0.006048
2312.8131,0.006064
2314.6768,0.006074
2316.5405,0.006145
2318.4041,0.006458
2320.2678,0.006802
2322.1315,0.006768
2323.9951,0.006712
2325.8588,0.006501
2327.7225,0.006000
2329.5861,0.005921
2331.4498,0.006111
2333.3135,0.005908
2335.1772,0.005393
2337.0408,0.005731
2338.9045,0.006903
2340.7682,0.007380
2342.6318,0.006935
2344.4955,0.006672
2346.3592,0.006372
2348.2228,0.005279
2350.0865,0.004386
2351.9502,0.004501
2353.8138,0.005437
2355.6775,0.006359
2357.5412,0.006832
2359.4049,0.007365
2361.2685,0.007593
2363.1322,0.007476
2364.9959,0.007517
2366.8595,0.007481
2368.7232,0.007664
2370.5869,0.007927
2372.4505,0.007574
2374.3142,0.007326
2376.1779,0.007179
2378.0415,0.006610
2379.9052,0.006012
2381.7689,0.005799
2383.6325,0.005734
2385.4962,0.005523
2387.3599,0.005538
2389.2236,0.005751
2391.0872,0.005904
2392.9509,0.005955
2394.8146,0.005794
2396.6782,0.005919
2398.5419,0.006178
2400.4056,0.005993
2402.2692,0.005581
2404.1329,0.005791
2405.9966,0.006408
2407.8602,0.006432
2409.7239,0.006311
2411.5876,0.006391
2413.4512,0.006342
2415.3149,0.006500
2417.1786,0.006543
2419.0423,0.006398
2420.9059,0.006506
2422.7696,0.006815
2424.6333,0.007014
2426.4969,0.007207
2428.3606,0.007335
2430.2243,0.007383
2432.0879,0.007205
2433.9516,0.007055
2435.8153,0.007278
2437.6789,0.007391
2439.5426,0.007503
2441.4063,0.007559
2443.2700,0.007763
2445.1336,0.007806
2446.9973,0.007486
2448.8610,0.007860
2450.7246,0.008412
2452.5883,0.008524
2454.4520,0.008435
2456.3156,0.008024
2458.1793,0.007561
2460.0430,0.007572
2461.9066,0.008040
2463.7703,0.008163
2465.6340,0.008049
2467.4976,0.007989
2469.3613,0.008051
2471.2250,0.008164
2473.0887,0.008205
2474.9523,0.008377
2476.8160,0.008337
2478.6797,0.008229
2480.5433,0.008450
2482.4070,0.008520
2484.2707,0.008445
2486.1343,0.008756
2487.9980,0.008824
2489.8617,0.008750
2491.7253,0.008678
2493.5890,0.008430
2495.4527,0.008336
2497.3164,0.008628
2499.1800,0.008894
2501.0437,0.008820
2502.9074,0.008912
2504.7710,0.009077
2506.6347,0.009102
2508.4984,0.009098
2510.3620,0.009290
2512.2257,0.009203
2514.0894,0.009019
2515.9530,0.009330
2517.8167,0.009896
2519.6804,0.009750
2521.5440,0.009104
2523.4077,0.009163
2525.2714,0.009453
2527.1351,0.009329
2528.9987,0.009466
2530.8624,0.009530
2532.7261,0.009497
2534.5897,0.009681
2536.4534,0.009795
2538.3171,0.009818
2540.1807,0.010022
2542.0444,0.009818
2543.9081,0.009659
2545.7717,0.009801
2547.6354,0.009826
2549.4991,0.009900
2551.3627,0.010014
2553.2264,0.010212
2555.0901,0.010463
2556.9538,0.010717
2558.8174,0.010757
2560.6811,0.010469
2562.5448,0.010372
2564.4084,0.010518
2566.2721,0.010699
2568.1358,0.010783
2569.9994,0.010895
2571.8631,0.011095
2573.7268,0.011279
2575.5904,0.011115
2577.4541,0.010874
2579.3178,0.011102
2581.1815,0.011310
2583.0451,0.011287
2584.9088,0.011087
2586.7725,0.010827
2588.6361,0.011074
2590.4998,0.011582
2592.3635,0.011854
2594.2271,0.011809
2596.0908,0.011962
2597.9545,0.012281
2599.8181,0.012586
2601.6818,0.012749
2603.5455,0.012546
2605.4091,0.012559
2607.2728,0.012759
2609.1365,0.012704
2611.0002,0.012501
2612.8638,0.012672
2614.7275,0.012784
2616.5912,0.012716
2618.4548,0.013052
2620.3185,0.013275
2622.1822,0.013277
2624.0458,0.013398
2625.9095,0.013681
2627.7732,0.013895
2629.6368,0.013944
2631.5005,0.013836
2633.3642,0.013839
2635.2279,0.014134
2637.0915,0.014324
2638.9552,0.014375
2640.8189,0.014394
2642.6825,0.014359
2644.5462,0.014262
2646.4099,0.014254
2648.2735,0.014454
2650.1372,0.014736
2652.0009,0.014768
2653.8645,0.014533
2655.7282,0.014498
2657.5919,0.014587
2659.4555,0.014553
2661.3192,0.014668
2663.1829,0.014789
2665.0466,0.014731
2666.9102,0.014580
2668.7739,0.014540
2670.6376,0.014691
2672.5012,0.014841
2674.3649,0.015091
2676.2286,0.015162
2678.0922,0.015148
2679.9559,0.015311
2681.8196,0.015477
2683.6832,0.015702
2685.5469,0.015645
2687.4106,0.015517
2689.2742,0.015533
2691.1379,0.015664
2693.0016,0.015930
2694.8653,0.016186
2696.7289,0.016320
2698.5926,0.016352
2700.4563,0.016323
2702.3199,0.016486
2704.1836,0.016542
2706.0473,0.016538
2707.9109,0.016647
2709.7746,0.016764
2711.6383,0.016958
2713.5019,0.017251
2715.3656,0.017393
2717.2293,0.017516
2719.0930,0.017836
2720.9566,0.017993
2722.8203,0.018030
2724.6840,0.018056
2726.5476,0.018200
2728.4113,0.018351
2730.2750,0.018534
2732.1386,0.018806
2734.0023,0.019017
2735.8660,0.019143
2737.7296,0.019177
2739.5933,0.019277
2741.4570,0.019529
2743.3206,0.019685
2745.1843,0.019766
2747.0480,0.020032
2748.9117,0.020236
2750.7753,0.020479
2752.6390,0.020413
2754.5027,0.020540
2756.3663,0.020817
2758.2300,0.020947
2760.0937,0.021038
2761.9573,0.021172
2763.8210,0.021360
2765.6847,0.021444
2767.5483,0.021527
2769.4120,0.021776
2771.2757,0.022083
2773.1394,0.022395
2775.0030,0.022342
2776.8667,0.022504
2778.7304,0.022669
2780.5940,0.022885
2782.4577,0.023090
2784.3214,0.023241
2786.1850,0.023472
2788.0487,0.023701
2789.9124,0.023946
2791.7760,0.024207
2793.6397,0.024255
2795.5034,0.024441
2797.3670,0.024652
2799.2307,0.024880
2801.0944,0.025168
2802.9581,0.025369
2804.8217,0.025492
2806.6854,0.025780
2808.5491,0.026151
2810.4127,0.026372
2812.2764,0.026254
2814.1401,0.026457
2816.0037,0.026735
2817.8674,0.026852
2819.7311,0.027289
2821.5947,0.027597
2823.4584,0.027690
2825.3221,0.027969
2827.1857,0.028361
2829.0494,0.028664
2830.9131,0.028766
2832.7768,0.029207
2834.6404,0.029751
2836.5041,0.030202
2838.3678,0.030724
2840.2314,0.031409
2842.0951,0.031987
2843.9588,0.032631
2845.8224,0.033416
2847.6861,0.034255
2849.5498,0.034733
2851.4134,0.035076
2853.2771,0.035253
2855.1408,0.035381
2857.0045,0.035328
2858.8681,0.035331
2860.7318,0.035586
2862.5955,0.036021
2864.4591,0.036254
2866.3228,0.036706
2868.1865,0.037416
2870.0501,0.037722
2871.9138,0.037883
2873.7775,0.038012
2875.6411,0.038013
2877.5048,0.038094
2879.3685,0.037843
2881.2321,0.037527
2883.0958,0.037562
2884.9595,0.037658
2886.8232,0.037935
2888.6868,0.038358
2890.5505,0.038484
2892.4142,0.038558
2894.2778,0.038713
2896.1415,0.038924
2898.0052,0.038984
2899.8688,0.039298
2901.7325,0.039674
2903.5962,0.040120
2905.4598,0.040651
2907.3235,0.041168
2909.1872,0.041727
2911.0509,0.042274
2912.9145,0.042848
2914.7782,0.043534
2916.6419,0.044039
2918.5055,0.044449
2920.3692,0.044878
2922.2329,0.044919
2924.0965,0.044657
2925.9602,0.044609
2927.8239,0.044706
2929.6875,0.044558
2931.5512,0.044221
2933.4149,0.044099
2935.2785,0.043589
2937.1422,0.042951
2939.0059,0.042657
2940.8696,0.042492
2942.7332,0.041988
2944.5969,0.041396
2946.4606,0.041196
2948.3242,0.041126
2950.1879,0.041134
2952.0516,0.041216
2953.9152,0.041373
2955.7789,0.041503
2957.6426,0.041374
2959.5062,0.041168
2961.3699,0.040693
2963.2336,0.040438
2965.0972,0.039962
2966.9609,0.039353
2968.8246,0.038399
2970.6883,0.037435
2972.5519,0.036770
2974.4156,0.036448
2976.2793,0.035995
2978.1429,0.035521
2980.0066,0.034909
2981.8703,0.034232
2983.7339,0.033674
2985.5976,0.033084
2987.4613,0.032716
2989.3249,0.032353
2991.1886,0.031964
2993.0523,0.031560
2994.9160,0.031036
2996.7796,0.030962
2998.6433,0.031084
3000.5070,0.031331
3002.3706,0.031362
3004.2343,0.031195
3006.0980,0.031231
3007.9616,0.031404
3009.8253,0.031426
3011.6890,0.031632
3013.5526,0.031713
3015.4163,0.031658
3017.2800,0.031820
3019.1436,0.032183
3021.0073,0.032117
3022.8710,0.032240
3024.7347,0.032549
3026.5983,0.032621
3028.4620,0.032889
3030.3257,0.033284
3032.1893,0.033538
3034.0530,0.033719
3035.9167,0.033837
3037.7803,0.034038
3039.6440,0.034245
3041.5077,0.034574
3043.3713,0.034617
3045.2350,0.034489
3047.0987,0.034684
3048.9624,0.035206
3050.8260,0.035118
3052.6897,0.035045
3054.5534,0.035415
3056.4170,0.035464
3058.2807,0.035356
3060.1444,0.035382
3062.0080,0.035556
3063.8717,0.035970
3065.7354,0.035813
3067.5990,0.035386
3069.4627,0.035121
3071.3264,0.035223
3073.1900,0.035324
3075.0537,0.035386
3076.9174,0.035283
3078.7811,0.035067
3080.6447,0.034637
3082.5084,0.034290
3084.3721,0.034092
3086.2357,0.033630
3088.0994,0.033055
3089.9631,0.033039
3091.8267,0.032829
3093.6904,0.032688
3095.5541,0.032624
3097.4177,0.032284
3099.2814,0.031997
3101.1451,0.031642
3103.0087,0.031434
3104.8724,0.031611
3106.7361,0.031571
3108.5998,0.031268
3110.4634,0.030775
3112.3271,0.030511
3114.1908,0.030746
3116.0544,0.031028
3117.9181,0.030720
3119.7818,0.030403
3121.6454,0.030565
3123.5091,0.030761
3125.3728,0.030148
3127.2364,0.030022
3129.1001,0.030615
3130.9638,0.030521
3132.8275,0.030365
3134.6911,0.030502
3136.5548,0.030738
3138.4185,0.030833
3140.2821,0.030570
3142.1458,0.030460
3144.0095,0.030881
3145.8731,0.031138
3147.7368,0.031246
3149.6005,0.031442
3151.4641,0.031824
3153.3278,0.031802
3155.1915,0.031672
3157.0551,0.032170
3158.9188,0.032440
3160.7825,0.032465
3162.6462,0.032515
3164.5098,0.032634
3166.3735,0.032826
3168.2372,0.032887
3170.1008,0.032566
3171.9645,0.032765
3173.8282,0.033310
3175.6918,0.033407
3177.5555,0.033150
3179.4192,0.033980
3181.2828,0.034796
3183.1465,0.034862
3185.0102,0.034740
3186.8739,0.034625
3188.7375,0.034905
3190.6012,0.035098
3192.4649,0.034896
3194.3285,0.034854
3196.1922,0.035071
3198.0559,0.035397
3199.9195,0.035413
3201.7832,0.035484
3203.6469,0.035448
3205.5105,0.035431
3207.3742,0.035325
3209.2379,0.035568
3211.1015,0.035953
3212.9652,0.035962
3214.8289,0.035648
3216.6926,0.035902
3218.5562,0.036194
3220.4199,0.036446
3222.2836,0.036523
3224.1472,0.035961
3226.0109,0.035598
3227.8746,0.036358
3229.7382,0.037155
3231.6019,0.037330
3233.4656,0.037506
3235.3292,0.037358
3237.1929,0.037183
3239.0566,0.037074
3240.9202,0.037093
3242.7839,0.037364
3244.6476,0.038197
3246.5113,0.038917
3248.3749,0.038882
3250.2386,0.038973
3252.1023,0.039317
3253.9659,0.039585
3255.8296,0.039645
3257.6933,0.039556
3259.5569,0.039626
3261.4206,0.039893
3263.2843,0.040334
3265.1479,0.040627
3267.0116,0.040890
3268.8753,0.041062
3270.7390,0.040674
3272.6026,0.040339
3274.4663,0.039933
3276.3300,0.039680
3278.1936,0.039322
3280.0573,0.039148
3281.9210,0.039171
3283.7846,0.039162
3285.6483,0.038959
3287.5120,0.038886
3289.3756,0.038578
3291.2393,0.038286
3293.1030,0.037718
3294.9666,0.036919
3296.8303,0.036040
3298.6940,0.035557
3300.5577,0.035424
3302.4213,0.034946
3304.2850,0.034404
3306.1487,0.034082
3308.0123,0.033255
3309.8760,0.032821
3311.7397,0.032584
3313.6033,0.032288
3315.4670,0.031946
3317.3307,0.031313
3319.1943,0.030538
3321.0580,0.030339
3322.9217,0.030500
3324.7854,0.030098
3326.6490,0.029552
3328.5127,0.029049
3330.3764,0.028547
3332.2400,0.028755
3334.1037,0.028508
3335.9674,0.027758
3337.8310,0.027487
3339.6947,0.027584
3341.5584,0.027474
3343.4220,0.027085
3345.2857,0.026521
3347.1494,0.026163
3349.0130,0.025773
3350.8767,0.025431
3352.7404,0.025477
3354.6041,0.025320
3356.4677,0.024967
3358.3314,0.024957
3360.1951,0.024982
3362.0587,0.024919
3363.9224,0.024383
3365.7861,0.023601
3367.6497,0.023575
3369.5134,0.023943
3371.3771,0.023580
3373.2407,0.023176
3375.1044,0.022830
3376.9681,0.022428
3378.8317,0.022455
3380.6954,0.022368
3382.5591,0.021923
3384.4228,0.022371
3386.2864,0.022877
3388.1501,0.022915
3390.0138,0.022419
3391.8774,0.021850
3393.7411,0.021639
3395.6048,0.021165
3397.4684,0.020913
3399.3321,0.021321
3401.1958,0.021407
3403.0594,0.020903
3404.9231,0.020761
3406.7868,0.021166
3408.6505,0.020947
3410.5141,0.020573
3412.3778,0.020637
3414.2415,0.020535
3416.1051,0.020427
3417.9688,0.019975
3419.8325,0.019486
3421.6961,0.019517
3423.5598,0.019636
3425.4235,0.019403
3427.2871,0.019540
3429.1508,0.019574
3431.0145,0.018615
3432.8781,0.017792
3434.7418,0.018014
3436.6055,0.018540
3438.4692,0.018164
3440.3328,0.017972
3442.1965,0.018564
3444.0602,0.018612
3445.9238,0.017802
3447.7875,0.017497
3449.6512,0.017462
3451.5148,0.017027
3453.3785,0.016573
3455.2422,0.016664
3457.1058,0.016886
3458.9695,0.016748
3460.8332,0.016533
3462.6969,0.016249
3464.5605,0.015817
3466.4242,0.015999
3468.2879,0.016315
3470.1515,0.015822
3472.0152,0.015448
3473.8789,0.015109
3475.7425,0.014655
3477.6062,0.014792
3479.4699,0.014894
3481.3335,0.014155
3483.1972,0.013346
3485.0609,0.013615
3486.9245,0.013708
3488.7882,0.013224
3490.6519,0.013177
3492.5156,0.013476
3494.3792,0.013401
3496.2429,0.013158
3498.1066,0.012432
3499.9702,0.011770
3501.8339,0.011663
3503.6976,0.011739
3505.5612,0.011682
3507.4249,0.011148
3509.2886,0.011334
3511.1522,0.011530
3513.0159,0.011208
3514.8796,0.011161
3516.7432,0.010858
3518.6069,0.010398
3520.4706,0.009511
3522.3343,0.008654
3524.1979,0.009072
3526.0616,0.009449
3527.9253,0.009014
3529.7889,0.008497
3531.6526,0.007816
3533.5163,0.007619
3535.3799,0.008108
3537.2436,0.007722
3539.1073,0.006927
3540.9709,0.006845
3542.8346,0.006742
3544.6983,0.006199
3546.5620,0.005893
3548.4256,0.005954
3550.2893,0.005570
3552.1530,0.005172
3554.0166,0.005103
3555.8803,0.005051
3557.7440,0.005001
3559.6076,0.004527
3561.4713,0.003927
3563.3350,0.003973
3565.1986,0.003682
3567.0623,0.002887
3568.9260,0.002697
3570.7896,0.002682
3572.6533,0.002087
3574.5170,0.001522
3576.3807,0.001232
3578.2443,0.000517
3580.1080,0.000038
3581.9717,0.000391
3583.8353,0.000396
3585.6990,-0.000213
3587.5627,-0.000694
3589.4263,-0.000874
3591.2900,-0.001071
3593.1537,-0.001427
3595.0173,-0.001691
3596.8810,-0.002042
3598.7447,-0.002491
3600.6084,-0.002722
3602.4720,-0.002743
3604.3357,-0.002789
3606.1994,-0.003228
3608.0630,-0.003703
3609.9267,-0.003878
3611.7904,-0.003775
3613.6540,-0.003646
3615.5177,-0.004085
3617.3814,-0.004963
3619.2450,-0.005373
3621.1087,-0.004820
3622.9724,-0.005018
3624.8360,-0.005769
3626.6997,-0.005995
3628.5634,-0.006279
3630.4271,-0.006164
3632.2907,-0.006062
3634.1544,-0.006518
3636.0181,-0.006691
3637.8817,-0.006924
3639.7454,-0.007111
3641.6091,-0.007257
3643.4727,-0.007695
3645.3364,-0.008078
3647.2001,-0.008471
3649.0637,-0.008558
3650.9274,-0.008375
3652.7911,-0.008100
3654.6547,-0.008003
3656.5184,-0.008397
3658.3821,-0.008493
3660.2458,-0.008338
3662.1094,-0.008543
3663.9731,-0.008528
3665.8368,-0.008483
3667.7004,-0.008859
3669.5641,-0.009005
3671.4278,-0.008522
3673.2914,-0.008415
3675.1551,-0.008943
3677.0188,-0.009018
3678.8824,-0.008626
3680.7461,-0.008426
3682.6098,-0.008315
3684.4735,-0.008033
3686.3371,-0.007845
3688.2008,-0.008330
3690.0645,-0.008567
3691.9281,-0.008319
3693.7918,-0.008007
3695.6555,-0.007942
3697.5191,-0.008331
3699.3828,-0.008518
3701.2465,-0.008126
3703.1101,-0.008110
3704.9738,-0.008227
3706.8375,-0.007907
3708.7011,-0.007933
3710.5648,-0.008150
3712.4285,-0.007872
3714.2922,-0.007770
3716.1558,-0.007964
3718.0195,-0.007786
3719.8832,-0.007563
3721.7468,-0.007534
3723.6105,-0.007384
3725.4742,-0.007634
3727.3378,-0.007998
3729.2015,-0.007950
3731.0652,-0.007878
3732.9288,-0.007884
3734.7925,-0.007609
3736.6562,-0.007383
3738.5199,-0.007374
3740.3835,-0.007573
3742.2472,-0.007788
3744.1109,-0.008072
3745.9745,-0.008096
3747.8382,-0.007662
3749.7019,-0.007692
3751.5655,-0.007462
3753.4292,-0.007374
3755.2929,-0.007566
3757.1565,-0.007484
3759.0202,-0.007492
3760.8839,-0.007506
3762.7475,-0.007386
3764.6112,-0.007124
3766.4749,-0.007042
3768.3386,-0.007076
3770.2022,-0.007098
3772.0659,-0.006918
3773.9296,-0.007012
3775.7932,-0.007479
3777.6569,-0.007727
3779.5206,-0.007581
3781.3842,-0.007165
3783.2479,-0.006770
3785.1116,-0.006953
3786.9752,-0.007115
3788.8389,-0.006959
3790.7026,-0.006977
3792.5662,-0.007380
3794.4299,-0.007621
3796.2936,-0.007443
3798.1573,-0.006809
3800.0209,-0.006859
3801.8846,-0.007666
3803.7483,-0.007197
3805.6119,-0.006839
3807.4756,-0.007413
3809.3393,-0.007179
3811.2029,-0.006794
3813.0666,-0.006799
3814.9303,-0.007126
3816.7939,-0.007591
3818.6576,-0.007130
3820.5213,-0.006979
3822.3850,-0.007075
3824.2486,-0.006745
3826.1123,-0.006937
3827.9760,-0.006845
3829.8396,-0.006898
3831.7033,-0.007165
3833.5670,-0.006911
3835.4306,-0.006777
3837.2943,-0.007302
3839.1580,-0.007484
3841.0216,-0.007079
3842.8853,-0.006958
3844.7490,-0.007219
3846.6126,-0.007231
3848.4763,-0.007202
3850.3400,-0.007341
3852.2037,-0.007384
3854.0673,-0.007200
3855.9310,-0.006478
3857.7947,-0.006219
3859.6583,-0.007020
3861.5220,-0.007555
3863.3857,-0.007476
3865.2493,-0.006998
3867.1130,-0.006479
3868.9767,-0.006633
3870.8403,-0.007150
3872.7040,-0.006870
3874.5677,-0.006793
3876.4314,-0.006675
3878.2950,-0.006634
3880.1587,-0.006931
3882.0224,-0.006876
3883.8860,-0.006857
3885.7497,-0.007264
3887.6134,-0.006958
3889.4770,-0.006465
3891.3407,-0.006640
3893.2044,-0.006644
3895.0680,-0.006157
3896.9317,-0.006463
3898.7954,-0.007212
3900.6590,-0.007079
3902.5227,-0.006676
3904.3864,-0.006690
3906.2501,-0.006319
3908.1137,-0.006149
3909.9774,-0.006487
3911.8411,-0.006469
3913.7047,-0.006348
3915.5684,-0.006522
3917.4321,-0.006774
3919.2957,-0.006827
3921.1594,-0.006612
3923.0231,-0.006672
3924.8867,-0.006677
3926.7504,-0.006416
3928.6141,-0.006220
3930.4777,-0.006243
3932.3414,-0.006235
3934.2051,-0.006127
3936.0688,-0.005952
3937.9324,-0.006259
3939.7961,-0.006408
3941.6598,-0.006196
3943.5234,-0.006007
3945.3871,-0.005978
3947.2508,-0.006304
3949.1144,-0.006746
3950.9781,-0.006482
3952.8418,-0.006178
3954.7054,-0.006007
3956.5691,-0.006029
3958.4328,-0.006145
3960.2965,-0.006246
3962.1601,-0.006362
3964.0238,-0.006506
3965.8875,-0.006260
3967.7511,-0.006253
3969.6148,-0.006284
3971.4785,-0.006109
3973.3421,-0.006177
3975.2058,-0.006240
3977.0695,-0.006222
3978.9331,-0.006251
3980.7968,-0.006098
3982.6605,-0.006031
3984.5241,-0.006049
3986.3878,-0.005941
3988.2515,-0.006107
3990.1152,-0.005958
3991.9788,-0.005859
3993.8425,-0.006311
3995.7062,-0.006319
3997.5698,-0.006064
3999.4335,-0.006236
