Wavenumber,Intensity
650.4205,0.054160
652.2841,0.058530
654.1478,0.056874
656.0115,0.053346
657.8751,0.055370
659.7388,0.055938
661.6025,0.053399
663.4661,0.052750
665.3298,0.053131
667.1935,0.052444
669.0571,0.052677
670.9208,0.052382
672.7845,0.051952
674.6481,0.052054
676.5118,0.052930
678.3755,0.052857
680.2392,0.051746
682.1028,0.050780
683.9665,0.050792
685.8302,0.050202
687.6938,0.049602
689.5575,0.049156
691.4212,0.048924
693.2848,0.048026
695.1485,0.048505
697.0122,0.048613
698.8758,0.048120
700.7395,0.047356
702.6032,0.047115
704.4669,0.046559
706.3305,0.045629
708.1942,0.044589
710.0579,0.044275
711.9215,0.044194
713.7852,0.044407
715.6489,0.044509
717.5125,0.043814
719.3762,0.043063
721.2399,0.042743
723.1035,0.042623
724.9672,0.042370
726.8309,0.041550
728.6945,0.041054
730.5582,0.040789
732.4219,0.040767
734.2856,0.040699
736.1492,0.039977
738.0129,0.039522
739.8766,0.039764
741.7402,0.039773
743.6039,0.039511
745.4676,0.039300
747.3312,0.038938
749.1949,0.038373
751.0586,0.038110
752.9222,0.037852
754.7859,0.037667
756.6496,0.037743
758.5132,0.037523
760.3769,0.037105
762.2406,0.037000
764.1043,0.037098
765.9679,0.036862
767.8316,0.036550
769.6953,0.036707
771.5589,0.036615
773.4226,0.035928
775.2863,0.035295
777.1499,0.035222
779.0136,0.035067
780.8773,0.034853
782.7409,0.034480
784.6046,0.034085
786.4683,0.033763
788.3320,0.033654
790.1956,0.033183
792.0593,0.032634
793.9230,0.032320
795.7866,0.032158
797.6503,0.031882
799.5140,0.031671
801.3776,0.031756
803.2413,0.031875
805.1050,0.031571
806.9686,0.031309
808.8323,0.031200
810.6960,0.031180
812.5596,0.031219
814.4233,0.030955
816.2870,0.031006
818.1507,0.030883
820.0143,0.030763
821.8780,0.030484
823.7417,0.029781
825.6053,0.029082
827.4690,0.028487
829.3327,0.028083
831.1963,0.027976
833.0600,0.027656
834.9237,0.027103
836.7873,0.026833
838.6510,0.026466
840.5147,0.025960
842.3784,0.025742
844.2420,0.025873
846.1057,0.025850
847.9694,0.025394
849.8330,0.025366
851.6967,0.025546
853.5604,0.025404
855.4240,0.025292
857.2877,0.025416
859.1514,0.025564
861.0150,0.025817
862.8787,0.025919
864.7424,0.025963
866.6060,0.026327
868.4697,0.026570
870.3334,0.026533
872.1971,0.026518
874.0607,0.026452
875.9244,0.026359
877.7881,0.026438
879.6517,0.026407
881.5154,0.026129
883.3791,0.025825
885.2427,0.025731
887.1064,0.025762
888.9701,0.025707
890.8337,0.025717
892.6974,0.025718
894.5611,0.025633
896.4247,0.025709
898.2884,0.025666
900.1521,0.025400
902.0158,0.025114
903.8794,0.024981
905.7431,0.024977
907.6068,0.024976
909.4704,0.024988
911.3341,0.025143
913.1978,0.025431
915.0614,0.025641
916.9251,0.025702
918.7888,0.025794
920.6524,0.026042
922.5161,0.026326
924.3798,0.026344
926.2435,0.026312
928.1071,0.026358
929.9708,0.026416
931.8345,0.026545
933.6981,0.026650
935.5618,0.027037
937.4255,0.027535
939.2891,0.027730
941.1528,0.028031
943.0165,0.028612
944.8801,0.029161
946.7438,0.029474
948.6075,0.029759
950.4711,0.030082
952.3348,0.030288
954.1985,0.030511
956.0622,0.030959
957.9258,0.031670
959.7895,0.032571
961.6532,0.033639
963.5168,0.034640
965.3805,0.035522
967.2442,0.036191
969.1078,0.036529
970.9715,0.036693
972.8352,0.036800
974.6988,0.037145
976.5625,0.037685
978.4262,0.038276
980.2899,0.038907
982.1535,0.039745
984.0172,0.040556
985.8809,0.041287
987.7445,0.042019
989.6082,0.042816
991.4719,0.043597
993.3355,0.044233
995.1992,0.044889
997.0629,0.045676
998.9265,0.046344
1000.7902,0.046771
1002.6539,0.047240
1004.5175,0.047974
1006.3812,0.048728
1008.2449,0.049619
1010.1086,0.050829
1011.9722,0.052097
1013.8359,0.053352
1015.6996,0.054644
1017.5632,0.055754
1019.4269,0.056685
1021.2906,0.057356
1023.1542,0.057866
1025.0179,0.058344
1026.8816,0.058843
1028.7452,0.059354
1030.6089,0.059787
1032.4726,0.060113
1034.3362,0.060370
1036.1999,0.060465
1038.0636,0.060433
1039.9273,0.060133
1041.7909,0.059877
1043.6546,0.059800
1045.5183,0.059571
1047.3819,0.059449
1049.2456,0.059529
1051.1093,0.059471
1052.9729,0.059477
1054.8366,0.059707
1056.7003,0.059841
1058.5639,0.059868
1060.4276,0.059853
1062.2913,0.059835
1064.1550,0.059966
1066.0186,0.060069
1067.8823,0.060026
1069.7460,0.059899
1071.6096,0.059763
1073.4733,0.059517
1075.3370,0.059053
1077.2006,0.058167
1079.0643,0.057061
1080.9280,0.055880
1082.7916,0.054573
1084.6553,0.053203
1086.5190,0.051750
1088.3826,0.050347
1090.2463,0.049198
1092.1100,0.048143
1093.9737,0.047150
1095.8373,0.046367
1097.7010,0.045707
1099.5647,0.044941
1101.4283,0.044278
1103.2920,0.043663
1105.1557,0.043127
1107.0193,0.042780
1108.8830,0.042508
1110.7467,0.042153
1112.6103,0.041805
1114.4740,0.041423
1116.3377,0.040991
1118.2014,0.040507
1120.0650,0.039946
1121.9287,0.039430
1123.7924,0.038983
1125.6560,0.038325
1127.5197,0.037583
1129.3834,0.036965
1131.2470,0.036411
1133.1107,0.035719
1134.9744,0.034928
1136.8380,0.034218
1138.7017,0.033581
1140.5654,0.033062
1142.4290,0.032656
1144.2927,0.032321
1146.1564,0.032026
1148.0201,0.031898
1149.8837,0.031901
1151.7474,0.031819
1153.6111,0.031694
1155.4747,0.031600
1157.3384,0.031433
1159.2021,0.031229
1161.0657,0.030974
1162.9294,0.030583
1164.7931,0.030128
1166.6567,0.029539
1168.5204,0.028833
1170.3841,0.028014
1172.2477,0.027119
1174.1114,0.026150
1175.9751,0.025178
1177.8388,0.024307
1179.7024,0.023689
1181.5661,0.023309
1183.4298,0.023116
1185.2934,0.023112
1187.1571,0.023223
1189.0208,0.023476
1190.8844,0.023820
1192.7481,0.024172
1194.6118,0.024639
1196.4754,0.025238
1198.3391,0.025877
1200.2028,0.026455
1202.0665,0.027018
1203.9301,0.027608
1205.7938,0.028130
1207.6575,0.028488
1209.5211,0.028811
1211.3848,0.029201
1213.2485,0.029539
1215.1121,0.029826
1216.9758,0.030220
1218.8395,0.030744
1220.7031,0.031211
1222.5668,0.031578
1224.4305,0.031974
1226.2941,0.032357
1228.1578,0.032701
1230.0215,0.032919
1231.8852,0.033115
1233.7488,0.033333
1235.6125,0.033413
1237.4762,0.033367
1239.3398,0.033311
1241.2035,0.033234
1243.0672,0.033088
1244.9308,0.032869
1246.7945,0.032608
1248.6582,0.032261
1250.5218,0.031890
1252.3855,0.031530
1254.2492,0.031221
1256.1129,0.030975
1257.9765,0.030679
1259.8402,0.030436
1261.7039,0.030232
1263.5675,0.029982
1265.4312,0.029747
1267.2949,0.029494
1269.1585,0.029283
1271.0222,0.029200
1272.8859,0.029077
1274.7495,0.028816
1276.6132,0.028708
1278.4769,0.028712
1280.3405,0.028528
1282.2042,0.028349
1284.0679,0.028397
1285.9316,0.028431
1287.7952,0.028518
1289.6589,0.028610
1291.5226,0.028646
1293.3862,0.028781
1295.2499,0.028985
1297.1136,0.029170
1298.9772,0.029374
1300.8409,0.029596
1302.7046,0.029763
1304.5682,0.029925
1306.4319,0.030073
1308.2956,0.030331
1310.1592,0.030543
1312.0229,0.030624
1313.8866,0.030671
1315.7503,0.030565
1317.6139,0.030416
1319.4776,0.030289
1321.3413,0.030072
1323.2049,0.029809
1325.0686,0.029646
1326.9323,0.029472
1328.7959,0.029327
1330.6596,0.029246
1332.5233,0.029187
1334.3869,0.029093
1336.2506,0.029015
1338.1143,0.029201
1339.9780,0.029573
1341.8416,0.029574
1343.7053,0.029483
1345.5690,0.029414
1347.4326,0.029303
1349.2963,0.029286
1351.1600,0.029280
1353.0236,0.029261
1354.8873,0.029323
1356.7510,0.029471
1358.6146,0.029621
1360.4783,0.030006
1362.3420,0.031023
1364.2056,0.031880
1366.0693,0.032191
1367.9330,0.032786
1369.7967,0.033344
1371.6603,0.033658
1373.5240,0.034503
1375.3877,0.035344
1377.2513,0.035492
1379.1150,0.035579
1380.9787,0.035622
1382.8423,0.035672
1384.7060,0.035605
1386.5697,0.035977
1388.4333,0.036324
1390.2970,0.035914
1392.1607,0.035654
1394.0244,0.036167
1395.8880,0.036848
1397.7517,0.036875
1399.6154,0.037096
1401.4790,0.036770
1403.3427,0.036357
1405.2064,0.036449
1407.0700,0.036108
1408.9337,0.035529
1410.7974,0.035194
1412.6610,0.034579
1414.5247,0.033782
1416.3884,0.033374
1418.2520,0.033917
1420.1157,0.034243
1421.9794,0.033335
1423.8431,0.033025
1425.7067,0.032968
1427.5704,0.032758
1429.4341,0.032965
1431.2977,0.033155
1433.1614,0.033108
1435.0251,0.033679
1436.8887,0.035432
1438.7524,0.035532
1440.6161,0.034895
1442.4797,0.034793
1444.3434,0.034655
1446.2071,0.034614
1448.0707,0.035020
1449.9344,0.034728
1451.7981,0.033776
1453.6618,0.032895
1455.5254,0.032923
1457.3891,0.034281
1459.2528,0.033226
1461.1164,0.031442
1462.9801,0.030595
1464.8438,0.030679
1466.7074,0.030156
1468.5711,0.028995
1470.4348,0.028111
1472.2984,0.028446
1474.1621,0.028756
1476.0258,0.028188
1477.8895,0.027651
1479.7531,0.027480
1481.6168,0.027623
1483.4805,0.027605
1485.3441,0.027829
1487.2078,0.029050
1489.0715,0.030916
1490.9351,0.032282
1492.7988,0.032262
1494.6625,0.032741
1496.5261,0.034961
1498.3898,0.036828
1500.2535,0.037283
1502.1171,0.037093
1503.9808,0.037190
1505.8445,0.040281
1507.7082,0.045782
1509.5718,0.045266
1511.4355,0.044732
1513.2992,0.044986
1515.1628,0.045182
1517.0265,0.046433
1518.8902,0.046851
1520.7538,0.047572
1522.6175,0.049355
1524.4812,0.049207
1526.3448,0.049530
1528.2085,0.049800
1530.0722,0.049410
1531.9359,0.049389
1533.7995,0.050507
1535.6632,0.049894
1537.5269,0.048636
1539.3905,0.049941
1541.2542,0.052316
1543.1179,0.051458
1544.9815,0.050565
1546.8452,0.049279
1548.7089,0.048039
1550.5725,0.047428
1552.4362,0.046219
1554.2999,0.044918
1556.1635,0.043849
1558.0272,0.044292
1559.8909,0.045623
1561.7546,0.042987
1563.6182,0.040946
1565.4819,0.039951
1567.3456,0.038904
1569.2092,0.038491
1571.0729,0.037958
1572.9366,0.036436
1574.8002,0.035573
1576.6639,0.035965
1578.5276,0.035507
1580.3912,0.034572
1582.2549,0.034112
1584.1186,0.033968
1585.9822,0.033923
1587.8459,0.033867
1589.7096,0.033991
1591.5733,0.034303
1593.4369,0.034912
1595.3006,0.035809
1597.1643,0.036537
1599.0279,0.037162
1600.8916,0.038049
1602.7553,0.039241
1604.6189,0.040554
1606.4826,0.041791
1608.3463,0.043168
1610.2099,0.044318
1612.0736,0.045300
1613.9373,0.046211
1615.8010,0.048055
1617.6646,0.050540
1619.5283,0.050780
1621.3920,0.051142
1623.2556,0.053022
1625.1193,0.054179
1626.9830,0.054463
1628.8466,0.054937
1630.7103,0.054775
1632.5740,0.054256
1634.4376,0.054844
1636.3013,0.056620
1638.1650,0.055638
1640.0286,0.054005
1641.8923,0.052990
1643.7560,0.051962
1645.6197,0.051443
1647.4833,0.051490
1649.3470,0.049873
1651.2107,0.048128
1653.0743,0.048879
1654.9380,0.048248
1656.8017,0.045600
1658.6653,0.043657
1660.5290,0.042061
1662.3927,0.040605
1664.2563,0.039125
1666.1200,0.037435
1667.9837,0.035827
1669.8474,0.034570
1671.7110,0.033235
1673.5747,0.031364
1675.4384,0.029723
1677.3020,0.028207
1679.1657,0.026614
1681.0294,0.025091
1682.8930,0.023656
1684.7567,0.021979
1686.6204,0.020060
1688.4840,0.018302
1690.3477,0.016794
1692.2114,0.015307
1694.0750,0.013457
1695.9387,0.011441
1697.8024,0.009988
1699.6661,0.008139
1701.5297,0.006453
1703.3934,0.005946
1705.2571,0.004967
1707.1207,0.004042
1708.9844,0.003719
1710.8481,0.003385
1712.7117,0.003139
1714.5754,0.002553
1716.4391,0.001582
1718.3027,0.000649
1720.1664,0.000643
1722.0301,0.000702
1723.8937,0.000602
1725.7574,0.000619
1727.6211,0.000609
1729.4848,0.000459
1731.3484,0.000355
1733.2121,-0.000496
1735.0758,-0.001014
1736.9394,-0.000232
1738.8031,-0.000300
1740.6668,-0.000611
1742.5304,-0.000475
1744.3941,-0.000558
1746.2578,-0.000567
1748.1214,-0.000863
1749.9851,-0.001601
1751.8488,-0.001814
1753.7125,-0.001257
1755.5761,-0.001276
1757.4398,-0.001756
1759.3035,-0.001894
1761.1671,-0.002182
1763.0308,-0.002159
1764.8945,-0.001593
1766.7581,-0.001574
1768.6218,-0.001667
1770.4855,-0.001697
1772.3491,-0.002272
1774.2128,-0.002283
1776.0765,-0.001930
1777.9401,-0.001806
1779.8038,-0.001874
1781.6675,-0.001981
1783.5312,-0.002035
1785.3948,-0.002148
1787.2585,-0.002016
1789.1222,-0.001893
1790.9858,-0.002213
1792.8495,-0.002515
1794.7132,-0.002187
1796.5768,-0.001921
1798.4405,-0.001878
1800.3042,-0.002245
1802.1678,-0.002419
1804.0315,-0.002148
1805.8952,-0.002031
1807.7589,-0.002077
1809.6225,-0.002258
1811.4862,-0.002451
1813.3499,-0.002391
1815.2135,-0.002256
1817.0772,-0.002307
1818.9409,-0.002236
1820.8045,-0.002040
1822.6682,-0.002116
1824.5319,-0.002441
1826.3955,-0.002603
1828.2592,-0.002387
1830.1229,-0.002577
1831.9865,-0.002467
1833.8502,-0.002408
1835.7139,-0.002607
1837.5776,-0.002586
1839.4412,-0.002250
1841.3049,-0.001992
1843.1686,-0.001991
1845.0322,-0.002346
1846.8959,-0.002559
1848.7596,-0.002407
1850.6232,-0.002040
1852.4869,-0.002121
1854.3506,-0.002083
1856.2142,-0.002085
1858.0779,-0.002128
1859.9416,-0.002143
1861.8052,-0.002360
1863.6689,-0.002546
1865.5326,-0.002182
1867.3963,-0.001997
1869.2599,-0.002174
1871.1236,-0.002382
1872.9873,-0.002655
1874.8509,-0.002537
1876.7146,-0.001956
1878.5783,-0.001981
1880.4419,-0.002328
1882.3056,-0.002440
1884.1693,-0.002461
1886.0329,-0.002484
1887.8966,-0.002519
1889.7603,-0.002716
1891.6240,-0.002436
1893.4876,-0.001920
1895.3513,-0.002019
1897.2150,-0.002210
1899.0786,-0.002156
1900.9423,-0.002298
1902.8060,-0.002263
1904.6696,-0.002224
1906.5333,-0.002330
1908.3970,-0.002650
1910.2606,-0.002665
1912.1243,-0.002357
1913.9880,-0.002242
1915.8516,-0.002182
1917.7153,-0.002423
1919.5790,-0.002861
1921.4427,-0.002804
1923.3063,-0.002390
1925.1700,-0.002036
1927.0337,-0.002460
1928.8973,-0.002886
1930.7610,-0.002868
1932.6247,-0.002663
1934.4883,-0.002712
1936.3520,-0.002554
1938.2157,-0.002297
1940.0793,-0.002310
1941.9430,-0.002439
1943.8067,-0.002161
1945.6704,-0.002444
1947.5340,-0.002813
1949.3977,-0.002896
1951.2614,-0.003191
1953.1250,-0.003668
1954.9887,-0.003621
1956.8524,-0.003144
1958.7160,-0.003537
1960.5797,-0.004373
1962.4434,-0.003989
1964.3070,-0.003495
1966.1707,-0.002786
1968.0344,-0.003744
1969.8980,-0.005484
1971.7617,-0.004006
1973.6254,-0.002904
1975.4891,-0.003351
1977.3527,-0.002611
1979.2164,-0.002033
1981.0801,-0.002303
1982.9437,-0.001926
1984.8074,-0.002263
1986.6711,-0.003212
1988.5347,-0.002210
1990.3984,-0.002161
1992.2621,-0.003261
1994.1257,-0.003435
1995.9894,-0.002371
1997.8531,-0.002025
1999.7167,-0.002595
2001.5804,-0.002812
2003.4441,-0.002874
2005.3078,-0.002842
2007.1714,-0.003878
2009.0351,-0.004816
2010.8988,-0.003361
2012.7624,-0.001389
2014.6261,-0.001216
2016.4898,-0.003283
2018.3534,-0.004384
2020.2171,-0.004343
2022.0808,-0.004416
2023.9444,-0.003405
2025.8081,-0.002658
2027.6718,-0.003797
2029.5355,-0.004013
2031.3991,-0.002535
2033.2628,-0.001912
2035.1265,-0.002720
2036.9901,-0.002661
2038.8538,-0.002718
2040.7175,-0.002708
2042.5811,-0.001969
2044.4448,-0.001641
2046.3085,-0.002194
2048.1721,-0.002142
2050.0358,-0.001467
2051.8995,-0.000613
2053.7631,-0.001008
2055.6268,-0.001619
2057.4905,-0.001251
2059.3542,-0.000623
2061.2178,-0.000196
2063.0815,-0.000459
2064.9452,-0.001083
2066.8088,-0.001041
2068.6725,-0.000883
2070.5362,-0.000513
2072.3998,-0.000240
2074.2635,-0.000622
2076.1272,-0.000317
2077.9908,-0.000034
2079.8545,-0.000909
2081.7182,-0.001279
2083.5819,-0.000914
2085.4455,-0.001115
2087.3092,-0.001635
2089.1729,-0.001356
2091.0365,-0.001169
2092.9002,-0.001204
2094.7639,-0.000997
2096.6275,-0.000998
2098.4912,-0.001019
2100.3549,-0.000799
2102.2185,-0.000569
2104.0822,-0.000868
2105.9459,-0.000842
2107.8095,-0.000451
2109.6732,-0.000593
2111.5369,-0.000532
2113.4006,-0.000582
2115.2642,-0.000833
2117.1279,-0.000745
2118.9916,-0.001516
2120.8552,-0.002051
2122.7189,-0.001376
2124.5826,-0.001534
2126.4462,-0.002149
2128.3099,-0.002191
2130.1736,-0.002008
2132.0372,-0.002258
2133.9009,-0.002255
2135.7646,-0.002361
2137.6282,-0.003093
2139.4919,-0.003214
2141.3556,-0.002077
2143.2193,-0.001856
2145.0829,-0.002305
2146.9466,-0.002717
2148.8103,-0.003941
2150.6739,-0.004114
2152.5376,-0.003261
2154.4013,-0.002516
2156.2649,-0.003123
2158.1286,-0.003799
2159.9923,-0.001981
2161.8559,-0.001388
2163.7196,-0.002240
2165.5833,-0.001608
2167.4470,-0.000798
2169.3106,-0.001566
2171.1743,-0.001956
2173.0380,-0.001677
2174.9016,-0.001305
2176.7653,-0.001292
2178.6290,-0.002340
2180.4926,-0.001995
2182.3563,-0.000897
2184.2200,-0.001337
2186.0836,-0.002193
2187.9473,-0.002447
2189.8110,-0.001081
2191.6746,-0.000264
2193.5383,-0.000678
2195.4020,-0.000739
2197.2657,-0.000702
2199.1293,-0.000563
2200.9930,-0.000266
2202.8567,-0.000565
2204.7203,-0.001230
2206.5840,-0.001459
2208.4477,-0.000545
2210.3113,-0.000097
2212.1750,-0.000798
2214.0387,-0.001028
2215.9023,-0.000580
2217.7660,-0.000378
2219.6297,-0.000899
2221.4934,-0.001403
2223.3570,-0.001102
2225.2207,-0.000416
2227.0844,-0.000020
2228.9480,-0.000189
2230.8117,-0.000590
2232.6754,-0.000477
2234.5390,0.000297
2236.4027,0.000034
2238.2664,-0.001147
2240.1300,-0.001381
2241.9937,-0.000869
2243.8574,-0.000607
2245.7210,-0.000297
2247.5847,-0.000135
2249.4484,-0.000375
2251.3121,-0.000264
2253.1757,-0.000101
2255.0394,-0.000084
2256.9031,0.000000
2258.7667,-0.000011
2260.6304,0.000102
2262.4941,-0.000293
2264.3577,-0.000852
2266.2214,-0.000408
2268.0851,0.000460
2269.9487,0.000853
2271.8124,0.000979
2273.6761,0.000832
2275.5397,0.000508
2277.4034,0.000356
2279.2671,0.000267
2281.1308,0.000392
2282.9944,0.000605
2284.8581,0.000672
2286.7218,0.000901
2288.5854,0.001128
2290.4491,0.000720
2292.3128,0.000157
2294.1764,0.000369
2296.0401,0.000688
2297.9038,0.000591
2299.7674,0.000491
2301.6311,0.000240
2303.4948,0.000117
2305.3585,0.000175
2307.2221,0.000260
2309.0858,0.000340
2310.9495,0.000354
2312.8131,0.000428
2314.6768,0.000657
2316.5405,0.000775
2318.4041,0.000495
2320.2678,0.000477
2322.1315,0.000745
2323.9951,0.000646
2325.8588,0.000258
2327.7225,0.000088
2329.5861,-0.000055
2331.4498,-0.000434
2333.3135,-0.000789
2335.1772,-0.000871
2337.0408,-0.000600
2338.9045,-0.000217
2340.7682,-0.000223
2342.6318,-0.000262
2344.4955,-0.000184
2346.3592,-0.000419
2348.2228,-0.000534
2350.0865,-0.000479
2351.9502,-0.000519
2353.8138,-0.000720
2355.6775,-0.000881
2357.5412,-0.001210
2359.4049,-0.001919
2361.2685,-0.001404
2363.1322,-0.000578
2364.9959,-0.000338
2366.8595,-0.000407
2368.7232,-0.000489
2370.5869,0.000151
2372.4505,0.000528
2374.3142,0.000430
2376.1779,0.000371
2378.0415,0.000421
2379.9052,0.000640
2381.7689,0.000575
2383.6325,0.000457
2385.4962,0.000385
2387.3599,0.000281
2389.2236,0.000436
2391.0872,0.000547
2392.9509,0.000480
2394.8146,0.000398
2396.6782,0.000407
2398.5419,0.000528
2400.4056,0.000609
2402.2692,0.000537
2404.1329,0.000281
2405.9966,0.000140
2407.8602,0.000209
2409.7239,0.000575
2411.5876,0.000860
2413.4512,0.000916
2415.3149,0.000749
2417.1786,0.000483
2419.0423,0.000550
2420.9059,0.000774
2422.7696,0.000702
2424.6333,0.000767
2426.4969,0.001015
2428.3606,0.001055
2430.2243,0.001031
2432.0879,0.000737
2433.9516,0.000588
2435.8153,0.000703
2437.6789,0.000746
2439.5426,0.001194
2441.4063,0.001456
2443.2700,0.001144
2445.1336,0.000905
2446.9973,0.000954
2448.8610,0.000892
2450.7246,0.000930
2452.5883,0.001220
2454.4520,0.001377
2456.3156,0.001426
2458.1793,0.001439
2460.0430,0.001323
2461.9066,0.001532
2463.7703,0.001737
2465.6340,0.001500
2467.4976,0.001119
2469.3613,0.001167
2471.2250,0.001363
2473.0887,0.001388
2474.9523,0.001521
2476.8160,0.001583
2478.6797,0.001566
2480.5433,0.001663
2482.4070,0.001489
2484.2707,0.001342
2486.1343,0.001335
2487.9980,0.001200
2489.8617,0.001220
2491.7253,0.001525
2493.5890,0.001599
2495.4527,0.001435
2497.3164,0.001494
2499.1800,0.001538
2501.0437,0.001594
2502.9074,0.001851
2504.7710,0.002000
2506.6347,0.002090
2508.4984,0.001925
2510.3620,0.001473
2512.2257,0.001454
2514.0894,0.001850
2515.9530,0.001954
2517.8167,0.001732
2519.6804,0.001725
2521.5440,0.002047
2523.4077,0.002261
2525.2714,0.002077
2527.1351,0.001815
2528.9987,0.001767
2530.8624,0.001867
2532.7261,0.002091
2534.5897,0.002343
2536.4534,0.002345
2538.3171,0.002292
2540.1807,0.002445
2542.0444,0.002370
2543.9081,0.002144
2545.7717,0.002263
2547.6354,0.002363
2549.4991,0.002147
2551.3627,0.001926
2553.2264,0.002202
2555.0901,0.002848
2556.9538,0.002893
2558.8174,0.002494
2560.6811,0.002339
2562.5448,0.002346
2564.4084,0.002392
2566.2721,0.002380
2568.1358,0.002490
2569.9994,0.002957
2571.8631,0.002993
2573.7268,0.002739
2575.5904,0.002846
2577.4541,0.003064
2579.3178,0.003187
2581.1815,0.003029
2583.0451,0.002894
2584.9088,0.003033
2586.7725,0.003235
2588.6361,0.003147
2590.4998,0.002923
2592.3635,0.003011
2594.2271,0.003066
2596.0908,0.003102
2597.9545,0.003357
2599.8181,0.003455
2601.6818,0.003604
2603.5455,0.003712
2605.4091,0.003623
2607.2728,0.003661
2609.1365,0.003595
2611.0002,0.003480
2612.8638,0.003582
2614.7275,0.003796
2616.5912,0.003963
2618.4548,0.004142
2620.3185,0.004192
2622.1822,0.003947
2624.0458,0.003811
2625.9095,0.004093
2627.7732,0.004347
2629.6368,0.004380
2631.5005,0.004362
2633.3642,0.004463
2635.2279,0.004584
2637.0915,0.004563
2638.9552,0.004502
2640.8189,0.004464
2642.6825,0.004482
2644.5462,0.004587
2646.4099,0.004540
2648.2735,0.004337
2650.1372,0.004493
2652.0009,0.004771
2653.8645,0.004790
2655.7282,0.004791
2657.5919,0.004714
2659.4555,0.004615
2661.3192,0.004587
2663.1829,0.004609
2665.0466,0.004672
2666.9102,0.004661
2668.7739,0.004673
2670.6376,0.004737
2672.5012,0.004799
2674.3649,0.004914
2676.2286,0.004952
2678.0922,0.005061
2679.9559,0.005270
2681.8196,0.005234
2683.6832,0.005068
2685.5469,0.005028
2687.4106,0.005116
2689.2742,0.005277
2691.1379,0.005450
2693.0016,0.005466
2694.8653,0.005484
2696.7289,0.005531
2698.5926,0.005582
2700.4563,0.005643
2702.3199,0.005713
2704.1836,0.005845
2706.0473,0.005793
2707.9109,0.005732
2709.7746,0.005862
2711.6383,0.005958
2713.5019,0.005987
2715.3656,0.005914
2717.2293,0.005916
2719.0930,0.006302
2720.9566,0.006547
2722.8203,0.006418
2724.6840,0.006349
2726.5476,0.006477
2728.4113,0.006611
2730.2750,0.006626
2732.1386,0.006634
2734.0023,0.006887
2735.8660,0.007127
2737.7296,0.007033
2739.5933,0.006785
2741.4570,0.006742
2743.3206,0.006947
2745.1843,0.007080
2747.0480,0.007097
2748.9117,0.007181
2750.7753,0.007373
2752.6390,0.007497
2754.5027,0.007373
2756.3663,0.007392
2758.2300,0.007740
2760.0937,0.007946
2761.9573,0.007989
2763.8210,0.007990
2765.6847,0.007972
2767.5483,0.008091
2769.4120,0.008111
2771.2757,0.008024
2773.1394,0.008143
2775.0030,0.008397
2776.8667,0.008445
2778.7304,0.008407
2780.5940,0.008578
2782.4577,0.008663
2784.3214,0.008631
2786.1850,0.008848
2788.0487,0.009195
2789.9124,0.009297
2791.7760,0.009235
2793.6397,0.009122
2795.5034,0.009130
2797.3670,0.009392
2799.2307,0.009502
2801.0944,0.009581
2802.9581,0.009650
2804.8217,0.009601
2806.6854,0.009779
2808.5491,0.010011
2810.4127,0.010010
2812.2764,0.010081
2814.1401,0.010347
2816.0037,0.010340
2817.8674,0.010164
2819.7311,0.010396
2821.5947,0.010850
2823.4584,0.011135
2825.3221,0.011150
2827.1857,0.011013
2829.0494,0.010931
2830.9131,0.011091
2832.7768,0.011361
2834.6404,0.011561
2836.5041,0.011819
2838.3678,0.012034
2840.2314,0.012141
2842.0951,0.012436
2843.9588,0.012792
2845.8224,0.013016
2847.6861,0.013354
2849.5498,0.013525
2851.4134,0.013542
2853.2771,0.013906
2855.1408,0.014085
2857.0045,0.013817
2858.8681,0.013712
2860.7318,0.013974
2862.5955,0.014344
2864.4591,0.014635
2866.3228,0.014923
2868.1865,0.015203
2870.0501,0.015496
2871.9138,0.015915
2873.7775,0.015926
2875.6411,0.015684
2877.5048,0.015637
2879.3685,0.015534
2881.2321,0.015348
2883.0958,0.015336
2884.9595,0.015542
2886.8232,0.015639
2888.6868,0.015691
2890.5505,0.015825
2892.4142,0.015609
2894.2778,0.015519
2896.1415,0.015916
2898.0052,0.016111
2899.8688,0.016260
2901.7325,0.016622
2903.5962,0.016920
2905.4598,0.016882
2907.3235,0.016731
2909.1872,0.017001
2911.0509,0.017384
2912.9145,0.017593
2914.7782,0.017683
2916.6419,0.017840
2918.5055,0.018300
2920.3692,0.018545
2922.2329,0.018338
2924.0965,0.018278
2925.9602,0.018538
2927.8239,0.018774
2929.6875,0.018818
2931.5512,0.018839
2933.4149,0.018822
2935.2785,0.018520
2937.1422,0.018296
2939.0059,0.018287
2940.8696,0.018085
2942.7332,0.017832
2944.5969,0.017853
2946.4606,0.018006
2948.3242,0.018021
2950.1879,0.017830
2952.0516,0.017743
2953.9152,0.018053
2955.7789,0.018162
2957.6426,0.017912
2959.5062,0.017880
2961.3699,0.017798
2963.2336,0.017475
2965.0972,0.017348
2966.9609,0.017303
2968.8246,0.017048
2970.6883,0.016598
2972.5519,0.016446
2974.4156,0.016874
2976.2793,0.016946
2978.1429,0.016543
2980.0066,0.016286
2981.8703,0.016271
2983.7339,0.016105
2985.5976,0.015532
2987.4613,0.015135
2989.3249,0.015341
2991.1886,0.015728
2993.0523,0.015616
2994.9160,0.015203
2996.7796,0.015025
2998.6433,0.015112
3000.5070,0.015141
3002.3706,0.015149
3004.2343,0.015209
3006.0980,0.015204
3007.9616,0.015372
3009.8253,0.015583
3011.6890,0.015701
3013.5526,0.015876
3015.4163,0.016055
3017.2800,0.016073
3019.1436,0.016060
3021.0073,0.016263
3022.8710,0.016570
3024.7347,0.016844
3026.5983,0.016754
3028.4620,0.016436
3030.3257,0.016497
3032.1893,0.016956
3034.0530,0.017442
3035.9167,0.017725
3037.7803,0.017723
3039.6440,0.017714
3041.5077,0.017902
3043.3713,0.018117
3045.2350,0.018470
3047.0987,0.018611
3048.9624,0.018577
3050.8260,0.018820
3052.6897,0.018938
3054.5534,0.019022
3056.4170,0.019203
3058.2807,0.019145
3060.1444,0.019298
3062.0080,0.019707
3063.8717,0.019764
3065.7354,0.019515
3067.5990,0.019574
3069.4627,0.019859
3071.3264,0.019785
3073.1900,0.019955
3075.0537,0.020265
3076.9174,0.020133
3078.7811,0.020180
3080.6447,0.020294
3082.5084,0.020215
3084.3721,0.020398
3086.2357,0.020710
3088.0994,0.020564
3089.9631,0.020406
3091.8267,0.020575
3093.6904,0.020483
3095.5541,0.020063
3097.4177,0.019860
3099.2814,0.020064
3101.1451,0.020365
3103.0087,0.020637
3104.8724,0.020728
3106.7361,0.020652
3108.5998,0.020694
3110.4634,0.020727
3112.3271,0.020856
3114.1908,0.021150
3116.0544,0.021188
3117.9181,0.021275
3119.7818,0.021536
3121.6454,0.021674
3123.5091,0.021639
3125.3728,0.021728
3127.2364,0.021972
3129.1001,0.021996
3130.9638,0.022017
3132.8275,0.021982
3134.6911,0.022302
3136.5548,0.022824
3138.4185,0.022797
3140.2821,0.022771
3142.1458,0.023053
3144.0095,0.023256
3145.8731,0.023388
3147.7368,0.023606
3149.6005,0.023778
3151.4641,0.023901
3153.3278,0.024047
3155.1915,0.024353
3157.0551,0.024626
3158.9188,0.024825
3160.7825,0.025121
3162.6462,0.025317
3164.5098,0.025258
3166.3735,0.025296
3168.2372,0.025881
3170.1008,0.026268
3171.9645,0.026183
3173.8282,0.026234
3175.6918,0.026458
3177.5555,0.026719
3179.4192,0.026942
3181.2828,0.027077
3183.1465,0.027315
3185.0102,0.027491
3186.8739,0.027569
3188.7375,0.027908
3190.6012,0.028253
3192.4649,0.028172
3194.3285,0.028117
3196.1922,0.028154
3198.0559,0.028272
3199.9195,0.028701
3201.7832,0.028737
3203.6469,0.028834
3205.5105,0.029125
3207.3742,0.028983
3209.2379,0.029185
3211.1015,0.029532
3212.9652,0.029466
3214.8289,0.029442
3216.6926,0.029678
3218.5562,0.029873
3220.4199,0.029851
3222.2836,0.029778
3224.1472,0.029678
3226.0109,0.029548
3227.8746,0.029814
3229.7382,0.030142
3231.6019,0.030408
3233.4656,0.030541
3235.3292,0.030444
3237.1929,0.030483
3239.0566,0.030899
3240.9202,0.031311
3242.7839,0.031320
3244.6476,0.031097
3246.5113,0.031028
3248.3749,0.031281
3250.2386,0.031434
3252.1023,0.031631
3253.9659,0.031962
3255.8296,0.032091
3257.6933,0.032056
3259.5569,0.031848
3261.4206,0.031791
3263.2843,0.031939
3265.1479,0.032018
3267.0116,0.031994
3268.8753,0.032022
3270.7390,0.032254
3272.6026,0.032245
3274.4663,0.032094
3276.3300,0.032199
3278.1936,0.032221
3280.0573,0.032062
3281.9210,0.031844
3283.7846,0.031670
3285.6483,0.031679
3287.5120,0.031711
3289.3756,0.031624
3291.2393,0.031518
3293.1030,0.031736
3294.9666,0.031908
3296.8303,0.031385
3298.6940,0.030638
3300.5577,0.030345
3302.4213,0.030410
3304.2850,0.030651
3306.1487,0.030727
3308.0123,0.030168
3309.8760,0.029786
3311.7397,0.029890
3313.6033,0.030183
3315.4670,0.030216
3317.3307,0.029725
3319.1943,0.029006
3321.0580,0.028892
3322.9217,0.029066
3324.7854,0.029228
3326.6490,0.029415
3328.5127,0.028938
3330.3764,0.028433
3332.2400,0.028379
3334.1037,0.028339
3335.9674,0.028333
3337.8310,0.028252
3339.6947,0.028296
3341.5584,0.028236
3343.4220,0.028016
3345.2857,0.027848
3347.1494,0.027781
3349.0130,0.028005
3350.8767,0.028058
3352.7404,0.027781
3354.6041,0.027411
3356.4677,0.027301
3358.3314,0.027498
3360.1951,0.027242
3362.0587,0.027017
3363.9224,0.026986
3365.7861,0.026847
3367.6497,0.026619
3369.5134,0.026428
3371.3771,0.026613
3373.2407,0.026712
3375.1044,0.026185
3376.9681,0.026006
3378.8317,0.026170
3380.6954,0.025860
3382.5591,0.025784
3384.4228,0.026055
3386.2864,0.025918
3388.1501,0.025606
3390.0138,0.025256
3391.8774,0.024852
3393.7411,0.024968
3395.6048,0.025148
3397.4684,0.025097
3399.3321,0.024879
3401.1958,0.024478
3403.0594,0.024557
3404.9231,0.024656
3406.7868,0.024213
3408.6505,0.024117
3410.5141,0.024524
3412.3778,0.024257
3414.2415,0.023867
3416.1051,0.023385
3417.9688,0.022795
3419.8325,0.022884
3421.6961,0.023423
3423.5598,0.023652
3425.4235,0.023437
3427.2871,0.023211
3429.1508,0.022985
3431.0145,0.022941
3432.8781,0.022736
3434.7418,0.022267
3436.6055,0.021802
3438.4692,0.021399
3440.3328,0.021452
3442.1965,0.021313
3444.0602,0.020850
3445.9238,0.020713
3447.7875,0.020708
3449.6512,0.020539
3451.5148,0.020573
3453.3785,0.020571
3455.2422,0.020158
3457.1058,0.019907
3458.9695,0.020063
3460.8332,0.019805
3462.6969,0.019169
3464.5605,0.019350
3466.4242,0.019774
3468.2879,0.019358
3470.1515,0.018675
3472.0152,0.018479
3473.8789,0.018169
3475.7425,0.017637
3477.6062,0.017332
3479.4699,0.016866
3481.3335,0.016709
3483.1972,0.017297
3485.0609,0.017845
3486.9245,0.018014
3488.7882,0.017453
3490.6519,0.016684
3492.5156,0.016389
3494.3792,0.016367
3496.2429,0.016407
3498.1066,0.015895
3499.9702,0.015379
3501.8339,0.015221
3503.6976,0.014967
3505.5612,0.014570
3507.4249,0.014372
3509.2886,0.014688
3511.1522,0.014720
3513.0159,0.014075
3514.8796,0.014017
3516.7432,0.014223
3518.6069,0.014010
3520.4706,0.013518
3522.3343,0.013032
3524.1979,0.012637
3526.0616,0.012565
3527.9253,0.012547
3529.7889,0.012164
3531.6526,0.011712
3533.5163,0.011739
3535.3799,0.011449
3537.2436,0.011067
3539.1073,0.011155
3540.9709,0.010874
3542.8346,0.010266
3544.6983,0.010156
3546.5620,0.010096
3548.4256,0.009340
3550.2893,0.008771
3552.1530,0.008829
3554.0166,0.008639
3555.8803,0.008236
3557.7440,0.008101
3559.6076,0.008143
3561.4713,0.008447
3563.3350,0.008286
3565.1986,0.007408
3567.0623,0.006687
3568.9260,0.006549
3570.7896,0.007283
3572.6533,0.007582
3574.5170,0.006959
3576.3807,0.006328
3578.2443,0.005925
3580.1080,0.005211
3581.9717,0.004328
3583.8353,0.003914
3585.6990,0.004306
3587.5627,0.004704
3589.4263,0.004361
3591.2900,0.004217
3593.1537,0.004200
3595.0173,0.003608
3596.8810,0.003555
3598.7447,0.003380
3600.6084,0.002704
3602.4720,0.002578
3604.3357,0.002589
3606.1994,0.002194
3608.0630,0.001387
3609.9267,0.001261
3611.7904,0.001833
3613.6540,0.001634
3615.5177,0.001474
3617.3814,0.001621
3619.2450,0.001032
3621.1087,0.000538
3622.9724,0.000770
3624.8360,0.000939
3626.6997,0.000515
3628.5634,-0.000315
3630.4271,-0.000750
3632.2907,-0.000676
3634.1544,-0.000947
3636.0181,-0.001115
3637.8817,-0.001188
3639.7454,-0.001428
3641.6091,-0.001397
3643.4727,-0.001623
3645.3364,-0.001937
3647.2001,-0.002117
3649.0637,-0.002840
3650.9274,-0.002952
3652.7911,-0.002050
3654.6547,-0.002090
3656.5184,-0.002849
3658.3821,-0.002766
3660.2458,-0.002407
3662.1094,-0.002675
3663.9731,-0.003007
3665.8368,-0.003322
3667.7004,-0.003724
3669.5641,-0.004356
3671.4278,-0.004537
3673.2914,-0.003773
3675.1551,-0.004106
3677.0188,-0.004978
3678.8824,-0.004563
3680.7461,-0.004147
3682.6098,-0.003817
3684.4735,-0.003704
3686.3371,-0.004222
3688.2008,-0.005001
3690.0645,-0.005500
3691.9281,-0.004983
3693.7918,-0.004531
3695.6555,-0.004558
3697.5191,-0.004578
3699.3828,-0.004370
3701.2465,-0.004420
3703.1101,-0.004945
3704.9738,-0.004945
3706.8375,-0.004538
3708.7011,-0.004578
3710.5648,-0.005133
3712.4285,-0.005447
3714.2922,-0.005105
3716.1558,-0.004503
3718.0195,-0.004147
3719.8832,-0.004238
3721.7468,-0.004785
3723.6105,-0.005209
3725.4742,-0.005212
3727.3378,-0.005081
3729.2015,-0.004750
3731.0652,-0.004294
3732.9288,-0.004331
3734.7925,-0.004831
3736.6562,-0.005424
3738.5199,-0.005647
3740.3835,-0.004615
3742.2472,-0.003998
3744.1109,-0.004730
3745.9745,-0.005107
3747.8382,-0.004336
3749.7019,-0.004380
3751.5655,-0.004988
3753.4292,-0.005001
3755.2929,-0.004841
3757.1565,-0.004730
3759.0202,-0.004622
3760.8839,-0.004666
3762.7475,-0.004744
3764.6112,-0.004868
3766.4749,-0.004959
3768.3386,-0.004823
3770.2022,-0.004989
3772.0659,-0.005081
3773.9296,-0.004689
3775.7932,-0.004376
3777.6569,-0.004236
3779.5206,-0.004470
3781.3842,-0.004706
3783.2479,-0.004715
3785.1116,-0.005000
3786.9752,-0.005073
3788.8389,-0.004800
3790.7026,-0.004540
3792.5662,-0.004281
3794.4299,-0.004445
3796.2936,-0.004941
3798.1573,-0.004926
3800.0209,-0.004511
3801.8846,-0.005014
3803.7483,-0.005199
3805.6119,-0.004599
3807.4756,-0.004825
3809.3393,-0.004732
3811.2029,-0.004189
3813.0666,-0.004260
3814.9303,-0.004518
3816.7939,-0.004765
3818.6576,-0.004776
3820.5213,-0.004886
3822.3850,-0.005732
3824.2486,-0.005607
3826.1123,-0.004995
3827.9760,-0.004719
3829.8396,-0.004439
3831.7033,-0.004771
3833.5670,-0.005331
3835.4306,-0.005196
3837.2943,-0.004460
3839.1580,-0.004537
3841.0216,-0.005222
3842.8853,-0.005306
3844.7490,-0.005178
3846.6126,-0.004566
3848.4763,-0.004100
3850.3400,-0.004546
3852.2037,-0.005202
3854.0673,-0.005900
3855.9310,-0.005863
3857.7947,-0.004891
3859.6583,-0.004419
3861.5220,-0.004542
3863.3857,-0.004998
3865.2493,-0.005100
3867.1130,-0.004642
3868.9767,-0.004425
3870.8403,-0.005044
3872.7040,-0.005070
3874.5677,-0.004843
3876.4314,-0.004661
3878.2950,-0.004094
3880.1587,-0.004253
3882.0224,-0.004831
3883.8860,-0.004603
3885.7497,-0.004629
3887.6134,-0.005046
3889.4770,-0.004681
3891.3407,-0.004930
3893.2044,-0.005486
3895.0680,-0.004664
3896.9317,-0.004096
3898.7954,-0.004428
3900.6590,-0.004646
3902.5227,-0.004603
3904.3864,-0.004811
3906.2501,-0.005228
3908.1137,-0.004954
3909.9774,-0.004452
3911.8411,-0.004284
3913.7047,-0.004172
3915.5684,-0.004297
3917.4321,-0.004608
3919.2957,-0.004552
3921.1594,-0.004298
3923.0231,-0.004342
3924.8867,-0.004540
3926.7504,-0.004460
3928.6141,-0.004010
3930.4777,-0.004134
3932.3414,-0.004473
3934.2051,-0.004452
3936.0688,-0.004439
3937.9324,-0.004318
3939.7961,-0.004145
3941.6598,-0.004428
3943.5234,-0.005007
3945.3871,-0.005034
3947.2508,-0.004500
3949.1144,-0.004328
3950.9781,-0.004391
3952.8418,-0.004519
3954.7054,-0.004246
3956.5691,-0.004051
3958.4328,-0.004038
3960.2965,-0.004215
3962.1601,-0.004364
3964.0238,-0.004230
3965.8875,-0.003881
3967.7511,-0.004021
3969.6148,-0.004529
3971.4785,-0.004451
3973.3421,-0.004169
3975.2058,-0.004100
3977.0695,-0.004235
3978.9331,-0.004551
3980.7968,-0.004410
3982.6605,-0.004084
3984.5241,-0.004311
3986.3878,-0.004611
3988.2515,-0.004587
3990.1152,-0.004199
3991.9788,-0.003728
3993.8425,-0.004019
3995.7062,-0.004204
3997.5698,-0.003872
3999.4335,-0.003841
