#Wavenumber	Intensity
650.4205	0.098089
652.2841	0.096436
654.1478	0.096306
656.0115	0.095961
657.8751	0.094146
659.7388	0.094535
661.6025	0.097203
663.4661	0.095543
665.3298	0.092879
667.1935	0.094029
669.0571	0.095417
670.9208	0.093861
672.7845	0.093505
674.6481	0.091838
676.5118	0.090944
678.3755	0.090321
680.2392	0.089530
682.1028	0.089626
683.9665	0.089579
685.8302	0.088968
687.6938	0.089468
689.5575	0.089744
691.4212	0.088698
693.2848	0.087671
695.1485	0.087506
697.0122	0.086736
698.8758	0.086161
700.7395	0.086050
702.6032	0.086035
704.4669	0.085232
706.3305	0.084093
708.1942	0.083245
710.0579	0.082906
711.9215	0.082002
713.7852	0.080645
715.6489	0.079541
717.5125	0.079188
719.3762	0.079364
721.2399	0.079315
723.1035	0.078079
724.9672	0.076735
726.8309	0.076422
728.6945	0.076279
730.5582	0.075420
732.4219	0.074862
734.2856	0.074446
736.1492	0.073716
738.0129	0.073345
739.8766	0.073245
741.7402	0.072494
743.6039	0.072091
745.4676	0.072257
747.3312	0.071663
749.1949	0.070716
751.0586	0.070231
752.9222	0.069488
754.7859	0.068906
756.6496	0.068410
758.5132	0.067978
760.3769	0.067742
762.2406	0.067445
764.1043	0.067465
765.9679	0.067442
767.8316	0.066429
769.6953	0.065371
771.5589	0.065243
773.4226	0.065108
775.2863	0.064656
777.1499	0.064175
779.0136	0.063886
780.8773	0.063858
782.7409	0.063492
784.6046	0.062772
786.4683	0.062204
788.3320	0.061655
790.1956	0.060922
792.0593	0.060558
793.9230	0.060221
795.7866	0.059792
797.6503	0.059615
799.5140	0.059336
801.3776	0.058820
803.2413	0.058586
805.1050	0.058499
806.9686	0.058043
808.8323	0.057674
810.6960	0.057537
812.5596	0.057261
814.4233	0.057041
816.2870	0.056967
818.1507	0.056846
820.0143	0.056541
821.8780	0.056249
823.7417	0.056286
825.6053	0.056070
827.4690	0.055539
829.3327	0.055192
831.1963	0.054889
833.0600	0.054567
834.9237	0.054019
836.7873	0.053350
838.6510	0.053115
840.5147	0.053110
842.3784	0.052827
844.2420	0.052558
846.1057	0.052479
847.9694	0.052532
849.8330	0.052726
851.6967	0.052617
853.5604	0.052262
855.4240	0.052042
857.2877	0.052040
859.1514	0.052091
861.0150	0.051966
862.8787	0.051727
864.7424	0.051674
866.6060	0.051892
868.4697	0.052093
870.3334	0.052174
872.1971	0.052118
874.0607	0.051917
875.9244	0.051618
877.7881	0.051324
879.6517	0.051148
881.5154	0.050993
883.3791	0.050808
885.2427	0.050559
887.1064	0.050313
888.9701	0.050125
890.8337	0.050005
892.6974	0.049888
894.5611	0.049779
896.4247	0.049724
898.2884	0.049664
900.1521	0.049474
902.0158	0.049270
903.8794	0.049175
905.7431	0.049063
907.6068	0.048981
909.4704	0.049040
911.3341	0.049180
913.1978	0.049419
915.0614	0.049739
916.9251	0.050031
918.7888	0.050320
920.6524	0.050744
922.5161	0.051042
924.3798	0.051151
926.2435	0.051334
928.1071	0.051458
929.9708	0.051436
931.8345	0.051500
933.6981	0.051652
935.5618	0.051702
937.4255	0.051682
939.2891	0.051899
941.1528	0.052210
943.0165	0.052427
944.8801	0.052450
946.7438	0.052275
948.6075	0.052321
950.4711	0.052466
952.3348	0.052380
954.1985	0.052264
956.0622	0.052233
957.9258	0.052406
959.7895	0.052859
961.6532	0.053519
963.5168	0.054219
965.3805	0.054931
967.2442	0.055569
969.1078	0.055999
970.9715	0.056382
972.8352	0.056753
974.6988	0.057111
976.5625	0.057690
978.4262	0.058431
980.2899	0.059321
982.1535	0.060425
984.0172	0.061463
985.8809	0.062338
987.7445	0.063203
989.6082	0.063851
991.4719	0.064400
993.3355	0.065065
995.1992	0.065761
997.0629	0.066378
998.9265	0.067107
1000.7902	0.068017
1002.6539	0.068830
1004.5175	0.069610
1006.3812	0.070602
1008.2449	0.071756
1010.1086	0.072922
1011.9722	0.074156
1013.8359	0.075584
1015.6996	0.077064
1017.5632	0.078535
1019.4269	0.079990
1021.2906	0.081495
1023.1542	0.082861
1025.0179	0.084088
1026.8816	0.085330
1028.7452	0.086464
1030.6089	0.087397
1032.4726	0.088290
1034.3362	0.089044
1036.1999	0.089578
1038.0636	0.089949
1039.9273	0.090244
1041.7909	0.090396
1043.6546	0.090540
1045.5183	0.090801
1047.3819	0.091026
1049.2456	0.091348
1051.1093	0.091841
1052.9729	0.092325
1054.8366	0.092827
1056.7003	0.093499
1058.5639	0.094251
1060.4276	0.094928
1062.2913	0.095499
1064.1550	0.096101
1066.0186	0.096843
1067.8823	0.097505
1069.7460	0.097964
1071.6096	0.098205
1073.4733	0.098229
1075.3370	0.098056
1077.2006	0.097492
1079.0643	0.096403
1080.9280	0.095009
1082.7916	0.093419
1084.6553	0.091713
1086.5190	0.089968
1088.3826	0.088347
1090.2463	0.086906
1092.1100	0.085534
1093.9737	0.084321
1095.8373	0.083339
1097.7010	0.082358
1099.5647	0.081452
1101.4283	0.080757
1103.2920	0.080148
1105.1557	0.079563
1107.0193	0.079103
1108.8830	0.078769
1110.7467	0.078370
1112.6103	0.077936
1114.4740	0.077527
1116.3377	0.077069
1118.2014	0.076491
1120.0650	0.075797
1121.9287	0.074942
1123.7924	0.073987
1125.6560	0.073116
1127.5197	0.072254
1129.3834	0.071266
1131.2470	0.070190
1133.1107	0.069105
1134.9744	0.068131
1136.8380	0.067283
1138.7017	0.066484
1140.5654	0.065841
1142.4290	0.065258
1144.2927	0.064875
1146.1564	0.064647
1148.0201	0.064326
1149.8837	0.064037
1151.7474	0.063906
1153.6111	0.063679
1155.4747	0.063355
1157.3384	0.062912
1159.2021	0.062363
1161.0657	0.061790
1162.9294	0.061105
1164.7931	0.060294
1166.6567	0.059492
1168.5204	0.058526
1170.3841	0.057326
1172.2477	0.056048
1174.1114	0.054866
1175.9751	0.053716
1177.8388	0.052653
1179.7024	0.051811
1181.5661	0.051149
1183.4298	0.050693
1185.2934	0.050492
1187.1571	0.050373
1189.0208	0.050274
1190.8844	0.050269
1192.7481	0.050409
1194.6118	0.050662
1196.4754	0.050982
1198.3391	0.051355
1200.2028	0.051802
1202.0665	0.052301
1203.9301	0.052803
1205.7938	0.053230
1207.6575	0.053531
1209.5211	0.053842
1211.3848	0.054246
1213.2485	0.054611
1215.1121	0.055026
1216.9758	0.055595
1218.8395	0.056190
1220.7031	0.056743
1222.5668	0.057245
1224.4305	0.057655
1226.2941	0.058073
1228.1578	0.058469
1230.0215	0.058876
1231.8852	0.059174
1233.7488	0.059389
1235.6125	0.059515
1237.4762	0.059513
1239.3398	0.059415
1241.2035	0.059349
1243.0672	0.059218
1244.9308	0.058994
1246.7945	0.058661
1248.6582	0.058225
1250.5218	0.057738
1252.3855	0.057337
1254.2492	0.057042
1256.1129	0.056684
1257.9765	0.056314
1259.8402	0.056025
1261.7039	0.055699
1263.5675	0.055304
1265.4312	0.054924
1267.2949	0.054557
1269.1585	0.054227
1271.0222	0.053969
1272.8859	0.053768
1274.7495	0.053527
1276.6132	0.053285
1278.4769	0.053058
1280.3405	0.052921
1282.2042	0.052788
1284.0679	0.052535
1285.9316	0.052406
1287.7952	0.052411
1289.6589	0.052399
1291.5226	0.052329
1293.3862	0.052387
1295.2499	0.052463
1297.1136	0.052555
1298.9772	0.052810
1300.8409	0.053084
1302.7046	0.053338
1304.5682	0.053570
1306.4319	0.053759
1308.2956	0.054045
1310.1592	0.054291
1312.0229	0.054472
1313.8866	0.054617
1315.7503	0.054618
1317.6139	0.054598
1319.4776	0.054436
1321.3413	0.054104
1323.2049	0.053771
1325.0686	0.053456
1326.9323	0.053126
1328.7959	0.052882
1330.6596	0.052699
1332.5233	0.052531
1334.3869	0.052253
1336.2506	0.052195
1338.1143	0.052732
1339.9780	0.053244
1341.8416	0.053098
1343.7053	0.052812
1345.5690	0.052847
1347.4326	0.052895
1349.2963	0.052967
1351.1600	0.052925
1353.0236	0.052927
1354.8873	0.053053
1356.7510	0.052933
1358.6146	0.052745
1360.4783	0.053242
1362.3420	0.054529
1364.2056	0.055345
1366.0693	0.055496
1367.9330	0.055987
1369.7967	0.056384
1371.6603	0.056805
1373.5240	0.057998
1375.3877	0.059017
1377.2513	0.059219
1379.1150	0.059490
1380.9787	0.059602
1382.8423	0.059493
1384.7060	0.059603
1386.5697	0.060532
1388.4333	0.061200
1390.2970	0.060490
1392.1607	0.060233
1394.0244	0.061280
1395.8880	0.062348
1397.7517	0.062540
1399.6154	0.062792
1401.4790	0.062270
1403.3427	0.062001
1405.2064	0.062580
1407.0700	0.062381
1408.9337	0.061837
1410.7974	0.061487
1412.6610	0.060845
1414.5247	0.059935
1416.3884	0.059586
1418.2520	0.060665
1420.1157	0.061218
1421.9794	0.059836
1423.8431	0.059300
1425.7067	0.058963
1427.5704	0.058551
1429.4341	0.059116
1431.2977	0.059277
1433.1614	0.058922
1435.0251	0.060144
1436.8887	0.063209
1438.7524	0.063430
1440.6161	0.062555
1442.4797	0.062644
1444.3434	0.062735
1446.2071	0.063207
1448.0707	0.063960
1449.9344	0.063630
1451.7981	0.062291
1453.6618	0.061295
1455.5254	0.062334
1457.3891	0.065502
1459.2528	0.063386
1461.1164	0.060418
1462.9801	0.059475
1464.8438	0.059965
1466.7074	0.058702
1468.5711	0.056458
1470.4348	0.055204
1472.2984	0.055629
1474.1621	0.055202
1476.0258	0.053774
1477.8895	0.052538
1479.7531	0.051555
1481.6168	0.051383
1483.4805	0.051021
1485.3441	0.050840
1487.2078	0.052083
1489.0715	0.054498
1490.9351	0.055953
1492.7988	0.055426
1494.6625	0.056238
1496.5261	0.059694
1498.3898	0.062105
1500.2535	0.062181
1502.1171	0.061470
1503.9808	0.062179
1505.8445	0.068615
1507.7082	0.076266
1509.5718	0.075226
1511.4355	0.075070
1513.2992	0.076222
1515.1628	0.077666
1517.0265	0.079918
1518.8902	0.081040
1520.7538	0.083484
1522.6175	0.086346
1524.4812	0.086274
1526.3448	0.087628
1528.2085	0.088291
1530.0722	0.088288
1531.9359	0.089484
1533.7995	0.091684
1535.6632	0.090434
1537.5269	0.089257
1539.3905	0.093364
1541.2542	0.097582
1543.1179	0.096365
1544.9815	0.094753
1546.8452	0.092613
1548.7089	0.090458
1550.5725	0.088835
1552.4362	0.086429
1554.2999	0.083972
1556.1635	0.082272
1558.0272	0.084585
1559.8909	0.087337
1561.7546	0.081772
1563.6182	0.077941
1565.4819	0.076279
1567.3456	0.075118
1569.2092	0.074971
1571.0729	0.073768
1572.9366	0.071466
1574.8002	0.071559
1576.6639	0.073582
1578.5276	0.072421
1580.3912	0.070851
1582.2549	0.070726
1584.1186	0.070894
1585.9822	0.071175
1587.8459	0.071618
1589.7096	0.072343
1591.5733	0.073192
1593.4369	0.074321
1595.3006	0.075574
1597.1643	0.076644
1599.0279	0.077736
1600.8916	0.079371
1602.7553	0.081288
1604.6189	0.083308
1606.4826	0.085545
1608.3463	0.088209
1610.2099	0.090547
1612.0736	0.092163
1613.9373	0.094108
1615.8010	0.098821
1617.6646	0.104004
1619.5283	0.104322
1621.3920	0.105765
1623.2556	0.110605
1625.1193	0.113523
1626.9830	0.114694
1628.8466	0.116643
1630.7103	0.116713
1632.5740	0.116481
1634.4376	0.118943
1636.3013	0.123397
1638.1650	0.122141
1640.0286	0.119241
1641.8923	0.117204
1643.7560	0.115501
1645.6197	0.115344
1647.4833	0.115662
1649.3470	0.112912
1651.2107	0.110717
1653.0743	0.114162
1654.9380	0.112522
1656.8017	0.106558
1658.6653	0.102123
1660.5290	0.098800
1662.3927	0.095958
1664.2563	0.092782
1666.1200	0.088894
1667.9837	0.085680
1669.8474	0.083185
1671.7110	0.080219
1673.5747	0.076812
1675.4384	0.073757
1677.3020	0.070023
1679.1657	0.066236
1681.0294	0.063084
1682.8930	0.060480
1684.7567	0.059010
1686.6204	0.055752
1688.4840	0.051895
1690.3477	0.048389
1692.2114	0.045053
1694.0750	0.042044
1695.9387	0.039598
1697.8024	0.037460
1699.6661	0.035748
1701.5297	0.033994
1703.3934	0.031711
1705.2571	0.030496
1707.1207	0.029491
1708.9844	0.028143
1710.8481	0.026855
1712.7117	0.025869
1714.5754	0.025380
1716.4391	0.025614
1718.3027	0.025818
1720.1664	0.025216
1722.0301	0.024341
1723.8937	0.023931
1725.7574	0.023356
1727.6211	0.022712
1729.4848	0.022354
1731.3484	0.022472
1733.2121	0.023030
1735.0758	0.023864
1736.9394	0.023180
1738.8031	0.022953
1740.6668	0.023182
1742.5304	0.023079
1744.3941	0.022885
1746.2578	0.022446
1748.1214	0.022044
1749.9851	0.021908
1751.8488	0.021172
1753.7125	0.020060
1755.5761	0.019149
1757.4398	0.018632
1759.3035	0.018119
1761.1671	0.017886
1763.0308	0.017621
1764.8945	0.016746
1766.7581	0.016033
1768.6218	0.016158
1770.4855	0.016479
1772.3491	0.017012
1774.2128	0.016756
1776.0765	0.016222
1777.9401	0.016147
1779.8038	0.016251
1781.6675	0.016308
1783.5312	0.016209
1785.3948	0.015934
1787.2585	0.015598
1789.1222	0.015493
1790.9858	0.015949
1792.8495	0.016317
1794.7132	0.015934
1796.5768	0.015427
1798.4405	0.015381
1800.3042	0.015800
1802.1678	0.015922
1804.0315	0.015698
1805.8952	0.015410
1807.7589	0.015312
1809.6225	0.015240
1811.4862	0.015028
1813.3499	0.014931
1815.2135	0.014850
1817.0772	0.014925
1818.9409	0.014775
1820.8045	0.014632
1822.6682	0.014800
1824.5319	0.014903
1826.3955	0.015127
1828.2592	0.015184
1830.1229	0.015327
1831.9865	0.015179
1833.8502	0.014668
1835.7139	0.014542
1837.5776	0.014470
1839.4412	0.014336
1841.3049	0.014526
1843.1686	0.014948
1845.0322	0.015260
1846.8959	0.015037
1848.7596	0.014484
1850.6232	0.014356
1852.4869	0.014529
1854.3506	0.014466
1856.2142	0.014600
1858.0779	0.014865
1859.9416	0.014630
1861.8052	0.014567
1863.6689	0.014537
1865.5326	0.014705
1867.3963	0.014785
1869.2599	0.014708
1871.1236	0.014640
1872.9873	0.014301
1874.8509	0.014092
1876.7146	0.014261
1878.5783	0.014587
1880.4419	0.014415
1882.3056	0.014033
1884.1693	0.013937
1886.0329	0.014112
1887.8966	0.014349
1889.7603	0.014769
1891.6240	0.014882
1893.4876	0.014603
1895.3513	0.014387
1897.2150	0.014212
1899.0786	0.014316
1900.9423	0.014289
1902.8060	0.014213
1904.6696	0.014505
1906.5333	0.014466
1908.3970	0.014357
1910.2606	0.014302
1912.1243	0.014065
1913.9880	0.013844
1915.8516	0.013577
1917.7153	0.014059
1919.5790	0.014571
1921.4427	0.014155
1923.3063	0.013741
1925.1700	0.013970
1927.0337	0.014266
1928.8973	0.014140
1930.7610	0.013979
1932.6247	0.013285
1934.4883	0.012497
1936.3520	0.012561
1938.2157	0.013290
1940.0793	0.013782
1941.9430	0.013634
1943.8067	0.013429
1945.6704	0.013141
1947.5340	0.013677
1949.3977	0.014097
1951.2614	0.013835
1953.1250	0.013589
1954.9887	0.013134
1956.8524	0.013186
1958.7160	0.013100
1960.5797	0.012371
1962.4434	0.012215
1964.3070	0.012818
1966.1707	0.012848
1968.0344	0.012744
1969.8980	0.013453
1971.7617	0.013489
1973.6254	0.013846
1975.4891	0.013910
1977.3527	0.014549
1979.2164	0.015666
1981.0801	0.015823
1982.9437	0.015538
1984.8074	0.014809
1986.6711	0.014757
1988.5347	0.015672
1990.3984	0.015839
1992.2621	0.015320
1994.1257	0.014546
1995.9894	0.015252
1997.8531	0.014774
1999.7167	0.014259
2001.5804	0.014357
2003.4441	0.014252
2005.3078	0.013968
2007.1714	0.014810
2009.0351	0.015403
2010.8988	0.014482
2012.7624	0.014322
2014.6261	0.014898
2016.4898	0.014663
2018.3534	0.015075
2020.2171	0.015309
2022.0808	0.014665
2023.9444	0.013869
2025.8081	0.014870
2027.6718	0.016665
2029.5355	0.017820
2031.3991	0.016580
2033.2628	0.016503
2035.1265	0.018476
2036.9901	0.019189
2038.8538	0.018379
2040.7175	0.018247
2042.5811	0.019410
2044.4448	0.019771
2046.3085	0.019107
2048.1721	0.019969
2050.0358	0.021100
2051.8995	0.020749
2053.7631	0.019849
2055.6268	0.019690
2057.4905	0.019800
2059.3542	0.020085
2061.2178	0.020391
2063.0815	0.020900
2064.9452	0.021100
2066.8088	0.020585
2068.6725	0.020129
2070.5362	0.019756
2072.3998	0.019277
2074.2635	0.019245
2076.1272	0.019331
2077.9908	0.018876
2079.8545	0.019030
2081.7182	0.019715
2083.5819	0.019487
2085.4455	0.018394
2087.3092	0.017744
2089.1729	0.017783
2091.0365	0.018078
2092.9002	0.017706
2094.7639	0.017026
2096.6275	0.017348
2098.4912	0.017786
2100.3549	0.017718
2102.2185	0.017427
2104.0822	0.017943
2105.9459	0.018338
2107.8095	0.017988
2109.6732	0.018082
2111.5369	0.018056
2113.4006	0.017720
2115.2642	0.017470
2117.1279	0.016833
2118.9916	0.016517
2120.8552	0.016528
2122.7189	0.016460
2124.5826	0.015827
2126.4462	0.015315
2128.3099	0.015851
2130.1736	0.015581
2132.0372	0.014856
2133.9009	0.014865
2135.7646	0.015121
2137.6282	0.015459
2139.4919	0.015489
2141.3556	0.015435
2143.2193	0.015721
2145.0829	0.015550
2146.9466	0.015077
2148.8103	0.014542
2150.6739	0.013494
2152.5376	0.012573
2154.4013	0.012974
2156.2649	0.014274
2158.1286	0.016433
2159.9923	0.019208
2161.8559	0.019546
2163.7196	0.017959
2165.5833	0.017824
2167.4470	0.017519
2169.3106	0.016545
2171.1743	0.016998
2173.0380	0.017777
2174.9016	0.017487
2176.7653	0.016943
2178.6290	0.017488
2180.4926	0.017960
2182.3563	0.018503
2184.2200	0.018968
2186.0836	0.018221
2187.9473	0.017484
2189.8110	0.018069
2191.6746	0.017898
2193.5383	0.016800
2195.4020	0.016563
2197.2657	0.017233
2199.1293	0.017483
2200.9930	0.017723
2202.8567	0.018165
2204.7203	0.018437
2206.5840	0.017608
2208.4477	0.016883
2210.3113	0.017025
2212.1750	0.017530
2214.0387	0.017799
2215.9023	0.017606
2217.7660	0.017465
2219.6297	0.017509
2221.4934	0.017346
2223.3570	0.017008
2225.2207	0.017448
2227.0844	0.018236
2228.9480	0.018085
2230.8117	0.018119
2232.6754	0.018456
2234.5390	0.018672
2236.4027	0.018605
2238.2664	0.018424
2240.1300	0.017706
2241.9937	0.017547
2243.8574	0.018029
2245.7210	0.018181
2247.5847	0.018147
2249.4484	0.018100
2251.3121	0.018029
2253.1757	0.018201
2255.0394	0.018770
2256.9031	0.019483
2258.7667	0.019594
2260.6304	0.018912
2262.4941	0.018176
2264.3577	0.018284
2266.2214	0.018750
2268.0851	0.018654
2269.9487	0.018646
2271.8124	0.019081
2273.6761	0.019085
2275.5397	0.018854
2277.4034	0.018858
2279.2671	0.019205
2281.1308	0.019482
2282.9944	0.019421
2284.8581	0.019429
2286.7218	0.019568
2288.5854	0.019343
2290.4491	0.019465
2292.3128	0.019524
2294.1764	0.019003
2296.0401	0.018816
2297.9038	0.018796
2299.7674	0.018639
2301.6311	0.018571
2303.4948	0.018839
2305.3585	0.019004
2307.2221	0.018779
2309.0858	0.018838
2310.9495	0.019117
2312.8131	0.019314
2314.6768	0.019038
2316.5405	0.018789
2318.4041	0.019203
2320.2678	0.019710
2322.1315	0.020004
2323.9951	0.020038
2325.8588	0.019171
2327.7225	0.018454
2329.5861	0.018393
2331.4498	0.018718
2333.3135	0.019088
2335.1772	0.019368
2337.0408	0.019511
2338.9045	0.019318
2340.7682	0.019484
2342.6318	0.019924
2344.4955	0.019968
2346.3592	0.019382
2348.2228	0.018319
2350.0865	0.017387
2351.9502	0.017171
2353.8138	0.017713
2355.6775	0.018525
2357.5412	0.018947
2359.4049	0.018646
2361.2685	0.018724
2363.1322	0.019588
2364.9959	0.019915
2366.8595	0.020107
2368.7232	0.020480
2370.5869	0.020298
2372.4505	0.019819
2374.3142	0.019626
2376.1779	0.019770
2378.0415	0.019638
2379.9052	0.019240
2381.7689	0.018834
2383.6325	0.018563
2385.4962	0.018149
2387.3599	0.017665
2389.2236	0.017627
2391.0872	0.017765
2392.9509	0.017704
2394.8146	0.017845
2396.6782	0.018191
2398.5419	0.018095
2400.4056	0.018024
2402.2692	0.018297
2404.1329	0.018315
2405.9966	0.018042
2407.8602	0.017930
2409.7239	0.018309
2411.5876	0.018667
2413.4512	0.018412
2415.3149	0.018183
2417.1786	0.018341
2419.0423	0.018373
2420.9059	0.018480
2422.7696	0.018665
2424.6333	0.018547
2426.4969	0.018496
2428.3606	0.018771
2430.2243	0.018817
2432.0879	0.018558
2433.9516	0.018406
2435.8153	0.018504
2437.6789	0.018876
2439.5426	0.018804
2441.4063	0.018547
2443.2700	0.018559
2445.1336	0.018685
2446.9973	0.018889
2448.8610	0.018866
2450.7246	0.018852
2452.5883	0.018999
2454.4520	0.019115
2456.3156	0.019104
2458.1793	0.018993
2460.0430	0.018946
2461.9066	0.019086
2463.7703	0.018994
2465.6340	0.018788
2467.4976	0.018964
2469.3613	0.019060
2471.2250	0.018833
2473.0887	0.018806
2474.9523	0.018964
2476.8160	0.019094
2478.6797	0.019177
2480.5433	0.019060
2482.4070	0.018990
2484.2707	0.019095
2486.1343	0.019076
2487.9980	0.019000
2489.8617	0.018959
2491.7253	0.018923
2493.5890	0.019036
2495.4527	0.019296
2497.3164	0.019355
2499.1800	0.019182
2501.0437	0.018933
2502.9074	0.018922
2504.7710	0.019265
2506.6347	0.019499
2508.4984	0.019293
2510.3620	0.018929
2512.2257	0.018951
2514.0894	0.019220
2515.9530	0.019313
2517.8167	0.019164
2519.6804	0.019008
2521.5440	0.019028
2523.4077	0.019303
2525.2714	0.019489
2527.1351	0.019402
2528.9987	0.019480
2530.8624	0.019644
2532.7261	0.019539
2534.5897	0.019505
2536.4534	0.019583
2538.3171	0.019401
2540.1807	0.019154
2542.0444	0.019076
2543.9081	0.019235
2545.7717	0.019552
2547.6354	0.019674
2549.4991	0.019866
2551.3627	0.020052
2553.2264	0.019929
2555.0901	0.019920
2556.9538	0.020137
2558.8174	0.020242
2560.6811	0.019948
2562.5448	0.019445
2564.4084	0.019414
2566.2721	0.019717
2568.1358	0.020022
2569.9994	0.020187
2571.8631	0.020226
2573.7268	0.020418
2575.5904	0.020546
2577.4541	0.020613
2579.3178	0.020612
2581.1815	0.020633
2583.0451	0.020734
2584.9088	0.020723
2586.7725	0.020707
2588.6361	0.020821
2590.4998	0.021072
2592.3635	0.021186
2594.2271	0.021022
2596.0908	0.020914
2597.9545	0.021041
2599.8181	0.021141
2601.6818	0.021109
2603.5455	0.021141
2605.4091	0.021279
2607.2728	0.021254
2609.1365	0.021483
2611.0002	0.021856
2612.8638	0.021914
2614.7275	0.022056
2616.5912	0.022206
2618.4548	0.021890
2620.3185	0.021643
2622.1822	0.021863
2624.0458	0.022188
2625.9095	0.022435
2627.7732	0.022476
2629.6368	0.022361
2631.5005	0.022380
2633.3642	0.022440
2635.2279	0.022578
2637.0915	0.022676
2638.9552	0.022682
2640.8189	0.022871
2642.6825	0.023025
2644.5462	0.023072
2646.4099	0.023094
2648.2735	0.023018
2650.1372	0.023089
2652.0009	0.023276
2653.8645	0.023250
2655.7282	0.023113
2657.5919	0.023093
2659.4555	0.023127
2661.3192	0.023077
2663.1829	0.022940
2665.0466	0.022799
2666.9102	0.022796
2668.7739	0.022810
2670.6376	0.022751
2672.5012	0.022859
2674.3649	0.023001
2676.2286	0.023043
2678.0922	0.023056
2679.9559	0.023084
2681.8196	0.023071
2683.6832	0.023150
2685.5469	0.023192
2687.4106	0.023233
2689.2742	0.023373
2691.1379	0.023542
2693.0016	0.023716
2694.8653	0.023764
2696.7289	0.023730
2698.5926	0.023799
2700.4563	0.023876
2702.3199	0.023989
2704.1836	0.024128
2706.0473	0.024116
2707.9109	0.024024
2709.7746	0.024179
2711.6383	0.024356
2713.5019	0.024419
2715.3656	0.024576
2717.2293	0.024648
2719.0930	0.024583
2720.9566	0.024658
2722.8203	0.024882
2724.6840	0.025061
2726.5476	0.025173
2728.4113	0.025215
2730.2750	0.025303
2732.1386	0.025409
2734.0023	0.025431
2735.8660	0.025557
2737.7296	0.025601
2739.5933	0.025582
2741.4570	0.025676
2743.3206	0.025817
2745.1843	0.025898
2747.0480	0.026064
2748.9117	0.026169
2750.7753	0.026141
2752.6390	0.026180
2754.5027	0.026407
2756.3663	0.026544
2758.2300	0.026480
2760.0937	0.026459
2761.9573	0.026648
2763.8210	0.026863
2765.6847	0.026902
2767.5483	0.027075
2769.4120	0.027400
2771.2757	0.027338
2773.1394	0.027307
2775.0030	0.027419
2776.8667	0.027584
2778.7304	0.027921
2780.5940	0.028163
2782.4577	0.028239
2784.3214	0.028394
2786.1850	0.028440
2788.0487	0.028436
2789.9124	0.028615
2791.7760	0.028732
2793.6397	0.028847
2795.5034	0.028884
2797.3670	0.028933
2799.2307	0.029268
2801.0944	0.029402
2802.9581	0.029463
2804.8217	0.029785
2806.6854	0.029954
2808.5491	0.030021
2810.4127	0.030126
2812.2764	0.030163
2814.1401	0.030308
2816.0037	0.030525
2817.8674	0.030822
2819.7311	0.031159
2821.5947	0.031209
2823.4584	0.031240
2825.3221	0.031513
2827.1857	0.031807
2829.0494	0.032169
2830.9131	0.032530
2832.7768	0.032687
2834.6404	0.032731
2836.5041	0.032941
2838.3678	0.033478
2840.2314	0.034099
2842.0951	0.034734
2843.9588	0.035594
2845.8224	0.036465
2847.6861	0.037534
2849.5498	0.038453
2851.4134	0.038876
2853.2771	0.039005
2855.1408	0.038956
2857.0045	0.038520
2858.8681	0.038193
2860.7318	0.038104
2862.5955	0.038076
2864.4591	0.037984
2866.3228	0.037955
2868.1865	0.038190
2870.0501	0.038643
2871.9138	0.038770
2873.7775	0.038760
2875.6411	0.038680
2877.5048	0.038628
2879.3685	0.038482
2881.2321	0.038498
2883.0958	0.038741
2884.9595	0.038978
2886.8232	0.039244
2888.6868	0.039603
2890.5505	0.039622
2892.4142	0.039604
2894.2778	0.039802
2896.1415	0.040084
2898.0052	0.040453
2899.8688	0.040986
2901.7325	0.041617
2903.5962	0.042212
2905.4598	0.042614
2907.3235	0.042968
2909.1872	0.043555
2911.0509	0.044427
2912.9145	0.045022
2914.7782	0.045688
2916.6419	0.046803
2918.5055	0.047956
2920.3692	0.048629
2922.2329	0.048853
2924.0965	0.048913
2925.9602	0.049012
2927.8239	0.048581
2929.6875	0.047823
2931.5512	0.047212
2933.4149	0.046672
2935.2785	0.046210
2937.1422	0.045817
2939.0059	0.045331
2940.8696	0.044972
2942.7332	0.044463
2944.5969	0.043946
2946.4606	0.043904
2948.3242	0.044100
2950.1879	0.044063
2952.0516	0.044175
2953.9152	0.044398
2955.7789	0.044554
2957.6426	0.044680
2959.5062	0.044662
2961.3699	0.044506
2963.2336	0.044228
2965.0972	0.043679
2966.9609	0.043247
2968.8246	0.042831
2970.6883	0.042501
2972.5519	0.042083
2974.4156	0.041796
2976.2793	0.041700
2978.1429	0.041486
2980.0066	0.041061
2981.8703	0.040781
2983.7339	0.040441
2985.5976	0.040085
2987.4613	0.039976
2989.3249	0.040131
2991.1886	0.040053
2993.0523	0.039859
2994.9160	0.039887
2996.7796	0.040195
2998.6433	0.040073
3000.5070	0.039967
3002.3706	0.040190
3004.2343	0.040554
3006.0980	0.040493
3007.9616	0.040445
3009.8253	0.040804
3011.6890	0.041031
3013.5526	0.041130
3015.4163	0.041305
3017.2800	0.041541
3019.1436	0.041618
3021.0073	0.041675
3022.8710	0.041965
3024.7347	0.042316
3026.5983	0.042566
3028.4620	0.042871
3030.3257	0.043315
3032.1893	0.043491
3034.0530	0.043553
3035.9167	0.043575
3037.7803	0.044037
3039.6440	0.044536
3041.5077	0.044955
3043.3713	0.045089
3045.2350	0.045097
3047.0987	0.045346
3048.9624	0.045775
3050.8260	0.045958
3052.6897	0.046039
3054.5534	0.046258
3056.4170	0.046434
3058.2807	0.046500
3060.1444	0.046772
3062.0080	0.047017
3063.8717	0.047343
3065.7354	0.047639
3067.5990	0.047827
3069.4627	0.047633
3071.3264	0.047949
3073.1900	0.048237
3075.0537	0.048201
3076.9174	0.048296
3078.7811	0.048636
3080.6447	0.048605
3082.5084	0.048236
3084.3721	0.048245
3086.2357	0.048493
3088.0994	0.048530
3089.9631	0.048537
3091.8267	0.048585
3093.6904	0.048814
3095.5541	0.049107
3097.4177	0.049200
3099.2814	0.049055
3101.1451	0.049315
3103.0087	0.049597
3104.8724	0.049701
3106.7361	0.049795
3108.5998	0.049904
3110.4634	0.050245
3112.3271	0.050638
3114.1908	0.050627
3116.0544	0.050862
3117.9181	0.050881
3119.7818	0.050761
3121.6454	0.050806
3123.5091	0.051345
3125.3728	0.051868
3127.2364	0.052275
3129.1001	0.052682
3130.9638	0.053002
3132.8275	0.053065
3134.6911	0.053222
3136.5548	0.053640
3138.4185	0.054027
3140.2821	0.054155
3142.1458	0.054418
3144.0095	0.054741
3145.8731	0.055538
3147.7368	0.055912
3149.6005	0.056067
3151.4641	0.056530
3153.3278	0.057166
3155.1915	0.057620
3157.0551	0.058028
3158.9188	0.058095
3160.7825	0.058311
3162.6462	0.058894
3164.5098	0.059615
3166.3735	0.060012
3168.2372	0.060388
3170.1008	0.060635
3171.9645	0.060834
3173.8282	0.060854
3175.6918	0.061198
3177.5555	0.061581
3179.4192	0.062159
3181.2828	0.062573
3183.1465	0.063239
3185.0102	0.063529
3186.8739	0.063863
3188.7375	0.064153
3190.6012	0.064369
3192.4649	0.064575
3194.3285	0.064929
3196.1922	0.065053
3198.0559	0.065223
3199.9195	0.065580
3201.7832	0.066286
3203.6469	0.066383
3205.5105	0.066643
3207.3742	0.067219
3209.2379	0.067454
3211.1015	0.067414
3212.9652	0.067436
3214.8289	0.067560
3216.6926	0.068031
3218.5562	0.068252
3220.4199	0.068444
3222.2836	0.068476
3224.1472	0.068687
3226.0109	0.068998
3227.8746	0.069513
3229.7382	0.069788
3231.6019	0.069859
3233.4656	0.069739
3235.3292	0.069990
3237.1929	0.070529
3239.0566	0.070904
3240.9202	0.070958
3242.7839	0.071383
3244.6476	0.071671
3246.5113	0.071691
3248.3749	0.071566
3250.2386	0.072080
3252.1023	0.072683
3253.9659	0.072775
3255.8296	0.072699
3257.6933	0.072966
3259.5569	0.073124
3261.4206	0.073535
3263.2843	0.073618
3265.1479	0.073985
3267.0116	0.074212
3268.8753	0.074439
3270.7390	0.074503
3272.6026	0.074583
3274.4663	0.074233
3276.3300	0.074166
3278.1936	0.073996
3280.0573	0.074131
3281.9210	0.074385
3283.7846	0.074501
3285.6483	0.074175
3287.5120	0.073892
3289.3756	0.073980
3291.2393	0.074325
3293.1030	0.074019
3294.9666	0.073879
3296.8303	0.073395
3298.6940	0.073220
3300.5577	0.073018
3302.4213	0.073018
3304.2850	0.072889
3306.1487	0.072631
3308.0123	0.072383
3309.8760	0.072235
3311.7397	0.071674
3313.6033	0.071634
3315.4670	0.071486
3317.3307	0.071475
3319.1943	0.071061
3321.0580	0.071126
3322.9217	0.071289
3324.7854	0.070829
3326.6490	0.070173
3328.5127	0.070187
3330.3764	0.070142
3332.2400	0.069943
3334.1037	0.069267
3335.9674	0.068946
3337.8310	0.069180
3339.6947	0.069691
3341.5584	0.069521
3343.4220	0.068923
3345.2857	0.068475
3347.1494	0.068897
3349.0130	0.069103
3350.8767	0.068768
3352.7404	0.068403
3354.6041	0.068625
3356.4677	0.068287
3358.3314	0.067879
3360.1951	0.067471
3362.0587	0.067432
3363.9224	0.067124
3365.7861	0.067312
3367.6497	0.067504
3369.5134	0.067165
3371.3771	0.066845
3373.2407	0.066835
3375.1044	0.066175
3376.9681	0.065537
3378.8317	0.065730
3380.6954	0.065918
3382.5591	0.065560
3384.4228	0.065465
3386.2864	0.065079
3388.1501	0.064777
3390.0138	0.064617
3391.8774	0.064717
3393.7411	0.064458
3395.6048	0.064127
3397.4684	0.063970
3399.3321	0.064050
3401.1958	0.063203
3403.0594	0.063185
3404.9231	0.063189
3406.7868	0.062938
3408.6505	0.062790
3410.5141	0.062573
3412.3778	0.061699
3414.2415	0.061573
3416.1051	0.061553
3417.9688	0.061221
3419.8325	0.060874
3421.6961	0.060573
3423.5598	0.060171
3425.4235	0.060498
3427.2871	0.060426
3429.1508	0.059815
3431.0145	0.059021
3432.8781	0.058780
3434.7418	0.058340
3436.6055	0.058033
3438.4692	0.057896
3440.3328	0.057866
3442.1965	0.057368
3444.0602	0.057066
3445.9238	0.056426
3447.7875	0.055959
3449.6512	0.055385
3451.5148	0.055320
3453.3785	0.055159
3455.2422	0.054963
3457.1058	0.054066
3458.9695	0.053561
3460.8332	0.054090
3462.6969	0.054154
3464.5605	0.053307
3466.4242	0.052479
3468.2879	0.051840
3470.1515	0.051871
3472.0152	0.051929
3473.8789	0.051294
3475.7425	0.050249
3477.6062	0.049452
3479.4699	0.049083
3481.3335	0.049833
3483.1972	0.049654
3485.0609	0.048638
3486.9245	0.047830
3488.7882	0.047370
3490.6519	0.047701
3492.5156	0.048275
3494.3792	0.047265
3496.2429	0.046006
3498.1066	0.044872
3499.9702	0.044681
3501.8339	0.044538
3503.6976	0.044080
3505.5612	0.043646
3507.4249	0.043133
3509.2886	0.042627
3511.1522	0.042839
3513.0159	0.042550
3514.8796	0.041616
3516.7432	0.041042
3518.6069	0.040924
3520.4706	0.040282
3522.3343	0.039768
3524.1979	0.039420
3526.0616	0.038940
3527.9253	0.038415
3529.7889	0.038220
3531.6526	0.037716
3533.5163	0.036951
3535.3799	0.036414
3537.2436	0.036372
3539.1073	0.036021
3540.9709	0.035246
3542.8346	0.034102
3544.6983	0.033668
3546.5620	0.034048
3548.4256	0.033910
3550.2893	0.033233
3552.1530	0.032772
3554.0166	0.032124
3555.8803	0.031609
3557.7440	0.030915
3559.6076	0.030421
3561.4713	0.030049
3563.3350	0.029368
3565.1986	0.028890
3567.0623	0.029248
3568.9260	0.029103
3570.7896	0.028529
3572.6533	0.027485
3574.5170	0.027089
3576.3807	0.026728
3578.2443	0.026290
3580.1080	0.025876
3581.9717	0.025389
3583.8353	0.025007
3585.6990	0.024812
3587.5627	0.024629
3589.4263	0.024764
3591.2900	0.023838
3593.1537	0.023254
3595.0173	0.023429
3596.8810	0.022844
3598.7447	0.022314
3600.6084	0.021860
3602.4720	0.021411
3604.3357	0.020934
3606.1994	0.019789
3608.0630	0.019196
3609.9267	0.019904
3611.7904	0.019565
3613.6540	0.018541
3615.5177	0.018343
3617.3814	0.018298
3619.2450	0.018139
3621.1087	0.018070
3622.9724	0.017207
3624.8360	0.016022
3626.6997	0.015467
3628.5634	0.015644
3630.4271	0.015989
3632.2907	0.015596
3634.1544	0.014746
3636.0181	0.014099
3637.8817	0.013831
3639.7454	0.013196
3641.6091	0.012845
3643.4727	0.012717
3645.3364	0.012059
3647.2001	0.011393
3649.0637	0.011464
3650.9274	0.011878
3652.7911	0.011706
3654.6547	0.010937
3656.5184	0.010508
3658.3821	0.010700
3660.2458	0.010535
3662.1094	0.010137
3663.9731	0.009720
3665.8368	0.009317
3667.7004	0.008726
3669.5641	0.008441
3671.4278	0.008258
3673.2914	0.008193
3675.1551	0.008192
3677.0188	0.008623
3678.8824	0.008193
3680.7461	0.007859
3682.6098	0.008316
3684.4735	0.008225
3686.3371	0.007267
3688.2008	0.006729
3690.0645	0.007458
3691.9281	0.007641
3693.7918	0.007349
3695.6555	0.007438
3697.5191	0.007307
3699.3828	0.007225
3701.2465	0.007087
3703.1101	0.006904
3704.9738	0.006841
3706.8375	0.006755
3708.7011	0.006768
3710.5648	0.006831
3712.4285	0.006490
3714.2922	0.006695
3716.1558	0.006816
3718.0195	0.006601
3719.8832	0.006327
3721.7468	0.006149
3723.6105	0.006060
3725.4742	0.006353
3727.3378	0.006901
3729.2015	0.006916
3731.0652	0.006255
3732.9288	0.006167
3734.7925	0.006789
3736.6562	0.006919
3738.5199	0.006617
3740.3835	0.006250
3742.2472	0.006125
3744.1109	0.005758
3745.9745	0.005721
3747.8382	0.006038
3749.7019	0.006374
3751.5655	0.006923
3753.4292	0.007235
3755.2929	0.007129
3757.1565	0.006832
3759.0202	0.006855
3760.8839	0.006817
3762.7475	0.006775
3764.6112	0.006672
3766.4749	0.006885
3768.3386	0.007071
3770.2022	0.006985
3772.0659	0.006956
3773.9296	0.006713
3775.7932	0.006623
3777.6569	0.006425
3779.5206	0.006177
3781.3842	0.006690
3783.2479	0.006888
3785.1116	0.006811
3786.9752	0.006843
3788.8389	0.006728
3790.7026	0.006372
3792.5662	0.006421
3794.4299	0.006732
3796.2936	0.006382
3798.1573	0.006136
3800.0209	0.006244
3801.8846	0.006476
3803.7483	0.006911
3805.6119	0.006781
3807.4756	0.006467
3809.3393	0.006438
3811.2029	0.006454
3813.0666	0.006034
3814.9303	0.005792
3816.7939	0.006106
3818.6576	0.006595
3820.5213	0.006748
3822.3850	0.007112
3824.2486	0.007197
3826.1123	0.006744
3827.9760	0.006418
3829.8396	0.006407
3831.7033	0.006502
3833.5670	0.006337
3835.4306	0.006207
3837.2943	0.006634
3839.1580	0.007204
3841.0216	0.006983
3842.8853	0.006309
3844.7490	0.006024
3846.6126	0.005917
3848.4763	0.005810
3850.3400	0.005751
3852.2037	0.006139
3854.0673	0.007116
3855.9310	0.007275
3857.7947	0.006898
3859.6583	0.006630
3861.5220	0.006220
3863.3857	0.006089
3865.2493	0.006226
3867.1130	0.006590
3868.9767	0.006534
3870.8403	0.006632
3872.7040	0.007029
3874.5677	0.006945
3876.4314	0.006708
3878.2950	0.006718
3880.1587	0.006483
3882.0224	0.006406
3883.8860	0.006531
3885.7497	0.006744
3887.6134	0.007086
3889.4770	0.006710
3891.3407	0.006160
3893.2044	0.006452
3895.0680	0.006498
3896.9317	0.006224
3898.7954	0.006448
3900.6590	0.007072
3902.5227	0.007639
3904.3864	0.007470
3906.2501	0.007163
3908.1137	0.007055
3909.9774	0.006798
3911.8411	0.006765
3913.7047	0.006687
3915.5684	0.006153
3917.4321	0.006169
3919.2957	0.006968
3921.1594	0.007535
3923.0231	0.007356
3924.8867	0.007058
3926.7504	0.007361
3928.6141	0.007275
3930.4777	0.006897
3932.3414	0.006887
3934.2051	0.006816
3936.0688	0.006861
3937.9324	0.007038
3939.7961	0.006902
3941.6598	0.006581
3943.5234	0.006774
3945.3871	0.007225
3947.2508	0.007156
3949.1144	0.006883
3950.9781	0.006672
3952.8418	0.006819
3954.7054	0.006988
3956.5691	0.006862
3958.4328	0.006734
3960.2965	0.006766
3962.1601	0.006643
3964.0238	0.006817
3965.8875	0.006967
3967.7511	0.006802
3969.6148	0.006974
3971.4785	0.007190
3973.3421	0.007164
3975.2058	0.007122
3977.0695	0.007053
3978.9331	0.006765
3980.7968	0.006825
3982.6605	0.007054
3984.5241	0.007001
3986.3878	0.007039
3988.2515	0.007036
3990.1152	0.006861
3991.9788	0.006830
3993.8425	0.007015
3995.7062	0.006990
3997.5698	0.006521
3999.4335	0.006252
