Wavenumber,Intensity
650.4205,0.078425
652.2841,0.077671
654.1478,0.077358
656.0115,0.077003
657.8751,0.076242
659.7388,0.075941
661.6025,0.075879
663.4661,0.074900
665.3298,0.073890
667.1935,0.074002
669.0571,0.075140
670.9208,0.074596
672.7845,0.073448
674.6481,0.072614
676.5118,0.071782
678.3755,0.070596
680.2392,0.070426
682.1028,0.070459
683.9665,0.069730
685.8302,0.069050
687.6938,0.068911
689.5575,0.068407
691.4212,0.067617
693.2848,0.067194
695.1485,0.067398
697.0122,0.067194
698.8758,0.066068
700.7395,0.065180
702.6032,0.065174
704.4669,0.065131
706.3305,0.064390
708.1942,0.063609
710.0579,0.063132
711.9215,0.062592
713.7852,0.062251
715.6489,0.062014
717.5125,0.061761
719.3762,0.061499
721.2399,0.060592
723.1035,0.059599
724.9672,0.059309
726.8309,0.059386
728.6945,0.059131
730.5582,0.058521
732.4219,0.057928
734.2856,0.057502
736.1492,0.057356
738.0129,0.057382
739.8766,0.057071
741.7402,0.056267
743.6039,0.055508
745.4676,0.055066
747.3312,0.054643
749.1949,0.054226
751.0586,0.053939
752.9222,0.053676
754.7859,0.053367
756.6496,0.053005
758.5132,0.052650
760.3769,0.052120
762.2406,0.051420
764.1043,0.051130
765.9679,0.051096
767.8316,0.050537
769.6953,0.049916
771.5589,0.049548
773.4226,0.049255
775.2863,0.049010
777.1499,0.048408
779.0136,0.047987
780.8773,0.047723
782.7409,0.047158
784.6046,0.046604
786.4683,0.046228
788.3320,0.045857
790.1956,0.045299
792.0593,0.044849
793.9230,0.044565
795.7866,0.044030
797.6503,0.043504
799.5140,0.043124
801.3776,0.042749
803.2413,0.042465
805.1050,0.042172
806.9686,0.041713
808.8323,0.041131
810.6960,0.040522
812.5596,0.040119
814.4233,0.039947
816.2870,0.039732
818.1507,0.039511
820.0143,0.039157
821.8780,0.038655
823.7417,0.038246
825.6053,0.037726
827.4690,0.037220
829.3327,0.036875
831.1963,0.036515
833.0600,0.036132
834.9237,0.035785
836.7873,0.035340
838.6510,0.034888
840.5147,0.034600
842.3784,0.034309
844.2420,0.033948
846.1057,0.033556
847.9694,0.033115
849.8330,0.032627
851.6967,0.032252
853.5604,0.032041
855.4240,0.031841
857.2877,0.031652
859.1514,0.031289
861.0150,0.030875
862.8787,0.030624
864.7424,0.030333
866.6060,0.029957
868.4697,0.029772
870.3334,0.029579
872.1971,0.029237
874.0607,0.028982
875.9244,0.028798
877.7881,0.028494
879.6517,0.028270
881.5154,0.028100
883.3791,0.027828
885.2427,0.027534
887.1064,0.027295
888.9701,0.027115
890.8337,0.026905
892.6974,0.026659
894.5611,0.026464
896.4247,0.026263
898.2884,0.026002
900.1521,0.025756
902.0158,0.025591
903.8794,0.025465
905.7431,0.025295
907.6068,0.025017
909.4704,0.024781
911.3341,0.024667
913.1978,0.024598
915.0614,0.024575
916.9251,0.024505
918.7888,0.024343
920.6524,0.024239
922.5161,0.024156
924.3798,0.024057
926.2435,0.023944
928.1071,0.023861
929.9708,0.023826
931.8345,0.023713
933.6981,0.023565
935.5618,0.023491
937.4255,0.023445
939.2891,0.023432
941.1528,0.023464
943.0165,0.023448
944.8801,0.023365
946.7438,0.023339
948.6075,0.023318
950.4711,0.023271
952.3348,0.023191
954.1985,0.023114
956.0622,0.023122
957.9258,0.023161
959.7895,0.023185
961.6532,0.023278
963.5168,0.023420
965.3805,0.023552
967.2442,0.023671
969.1078,0.023802
970.9715,0.023896
972.8352,0.023968
974.6988,0.024051
976.5625,0.024134
978.4262,0.024235
980.2899,0.024450
982.1535,0.024704
984.0172,0.024887
985.8809,0.025039
987.7445,0.025250
989.6082,0.025487
991.4719,0.025730
993.3355,0.025969
995.1992,0.026199
997.0629,0.026448
998.9265,0.026684
1000.7902,0.026908
1002.6539,0.027146
1004.5175,0.027333
1006.3812,0.027463
1008.2449,0.027650
1010.1086,0.027922
1011.9722,0.028239
1013.8359,0.028583
1015.6996,0.028956
1017.5632,0.029411
1019.4269,0.029929
1021.2906,0.030349
1023.1542,0.030658
1025.0179,0.030973
1026.8816,0.031316
1028.7452,0.031700
1030.6089,0.032055
1032.4726,0.032348
1034.3362,0.032628
1036.1999,0.032913
1038.0636,0.033167
1039.9273,0.033416
1041.7909,0.033625
1043.6546,0.033765
1045.5183,0.033855
1047.3819,0.033877
1049.2456,0.033870
1051.1093,0.033804
1052.9729,0.033694
1054.8366,0.033657
1056.7003,0.033660
1058.5639,0.033728
1060.4276,0.033842
1062.2913,0.033962
1064.1550,0.034097
1066.0186,0.034217
1067.8823,0.034337
1069.7460,0.034548
1071.6096,0.034775
1073.4733,0.034987
1075.3370,0.035176
1077.2006,0.035284
1079.0643,0.035266
1080.9280,0.035163
1082.7916,0.034948
1084.6553,0.034636
1086.5190,0.034287
1088.3826,0.033926
1090.2463,0.033559
1092.1100,0.033200
1093.9737,0.032834
1095.8373,0.032542
1097.7010,0.032257
1099.5647,0.031970
1101.4283,0.031695
1103.2920,0.031419
1105.1557,0.031095
1107.0193,0.030856
1108.8830,0.030672
1110.7467,0.030454
1112.6103,0.030217
1114.4740,0.029992
1116.3377,0.029761
1118.2014,0.029464
1120.0650,0.029134
1121.9287,0.028857
1123.7924,0.028588
1125.6560,0.028297
1127.5197,0.028013
1129.3834,0.027724
1131.2470,0.027410
1133.1107,0.027122
1134.9744,0.026815
1136.8380,0.026506
1138.7017,0.026233
1140.5654,0.026026
1142.4290,0.025814
1144.2927,0.025605
1146.1564,0.025388
1148.0201,0.025172
1149.8837,0.024914
1151.7474,0.024733
1153.6111,0.024639
1155.4747,0.024471
1157.3384,0.024309
1159.2021,0.024199
1161.0657,0.024088
1162.9294,0.023941
1164.7931,0.023788
1166.6567,0.023647
1168.5204,0.023495
1170.3841,0.023291
1172.2477,0.023038
1174.1114,0.022817
1175.9751,0.022592
1177.8388,0.022358
1179.7024,0.022142
1181.5661,0.022044
1183.4298,0.022008
1185.2934,0.021946
1187.1571,0.021966
1189.0208,0.022043
1190.8844,0.022082
1192.7481,0.022160
1194.6118,0.022253
1196.4754,0.022342
1198.3391,0.022444
1200.2028,0.022600
1202.0665,0.022722
1203.9301,0.022817
1205.7938,0.022945
1207.6575,0.023074
1209.5211,0.023151
1211.3848,0.023247
1213.2485,0.023352
1215.1121,0.023425
1216.9758,0.023479
1218.8395,0.023594
1220.7031,0.023740
1222.5668,0.023831
1224.4305,0.023891
1226.2941,0.023976
1228.1578,0.024041
1230.0215,0.024102
1231.8852,0.024139
1233.7488,0.024218
1235.6125,0.024262
1237.4762,0.024276
1239.3398,0.024306
1241.2035,0.024311
1243.0672,0.024280
1244.9308,0.024245
1246.7945,0.024177
1248.6582,0.024089
1250.5218,0.024040
1252.3855,0.023993
1254.2492,0.023899
1256.1129,0.023812
1257.9765,0.023693
1259.8402,0.023585
1261.7039,0.023478
1263.5675,0.023359
1265.4312,0.023230
1267.2949,0.023161
1269.1585,0.023116
1271.0222,0.023040
1272.8859,0.022939
1274.7495,0.022917
1276.6132,0.022852
1278.4769,0.022804
1280.3405,0.022792
1282.2042,0.022725
1284.0679,0.022642
1285.9316,0.022653
1287.7952,0.022689
1289.6589,0.022698
1291.5226,0.022705
1293.3862,0.022770
1295.2499,0.022823
1297.1136,0.022885
1298.9772,0.022976
1300.8409,0.023107
1302.7046,0.023213
1304.5682,0.023281
1306.4319,0.023309
1308.2956,0.023370
1310.1592,0.023461
1312.0229,0.023571
1313.8866,0.023661
1315.7503,0.023674
1317.6139,0.023724
1319.4776,0.023818
1321.3413,0.023801
1323.2049,0.023717
1325.0686,0.023668
1326.9323,0.023633
1328.7959,0.023611
1330.6596,0.023577
1332.5233,0.023501
1334.3869,0.023414
1336.2506,0.023428
1338.1143,0.023660
1339.9780,0.023955
1341.8416,0.023973
1343.7053,0.023919
1345.5690,0.024065
1347.4326,0.024120
1349.2963,0.024129
1351.1600,0.024123
1353.0236,0.024087
1354.8873,0.024010
1356.7510,0.023786
1358.6146,0.023542
1360.4783,0.023621
1362.3420,0.024072
1364.2056,0.024373
1366.0693,0.024172
1367.9330,0.024175
1369.7967,0.024267
1371.6603,0.024369
1373.5240,0.024836
1375.3877,0.025312
1377.2513,0.025324
1379.1150,0.025442
1380.9787,0.025470
1382.8423,0.025351
1384.7060,0.025396
1386.5697,0.025895
1388.4333,0.026260
1390.2970,0.025890
1392.1607,0.025782
1394.0244,0.026260
1395.8880,0.026867
1397.7517,0.027132
1399.6154,0.027497
1401.4790,0.027397
1403.3427,0.027413
1405.2064,0.027886
1407.0700,0.027965
1408.9337,0.027886
1410.7974,0.027818
1412.6610,0.027476
1414.5247,0.026918
1416.3884,0.026726
1418.2520,0.027215
1420.1157,0.027631
1421.9794,0.026935
1423.8431,0.026462
1425.7067,0.026083
1427.5704,0.025657
1429.4341,0.025698
1431.2977,0.025385
1433.1614,0.024919
1435.0251,0.025219
1436.8887,0.026387
1438.7524,0.026312
1440.6161,0.025729
1442.4797,0.025576
1444.3434,0.025438
1446.2071,0.025659
1448.0707,0.026020
1449.9344,0.025893
1451.7981,0.025182
1453.6618,0.024743
1455.5254,0.025248
1457.3891,0.027371
1459.2528,0.026713
1461.1164,0.025450
1462.9801,0.025036
1464.8438,0.025407
1466.7074,0.024852
1468.5711,0.023910
1470.4348,0.023497
1472.2984,0.024283
1474.1621,0.024814
1476.0258,0.024387
1477.8895,0.023815
1479.7531,0.023280
1481.6168,0.023042
1483.4805,0.022544
1485.3441,0.022123
1487.2078,0.022600
1489.0715,0.023590
1490.9351,0.023994
1492.7988,0.023363
1494.6625,0.023253
1496.5261,0.024368
1498.3898,0.025090
1500.2535,0.024708
1502.1171,0.023884
1503.9808,0.023602
1505.8445,0.025600
1507.7082,0.028595
1509.5718,0.028209
1511.4355,0.027814
1513.2992,0.027854
1515.1628,0.027942
1517.0265,0.028779
1518.8902,0.029332
1520.7538,0.030392
1522.6175,0.031688
1524.4812,0.031673
1526.3448,0.032362
1528.2085,0.032543
1530.0722,0.032625
1531.9359,0.033275
1533.7995,0.034330
1535.6632,0.033894
1537.5269,0.033390
1539.3905,0.035664
1541.2542,0.038397
1543.1179,0.038752
1544.9815,0.038735
1546.8452,0.038342
1548.7089,0.037988
1550.5725,0.038176
1552.4362,0.037565
1554.2999,0.037010
1556.1635,0.036871
1558.0272,0.039259
1559.8909,0.042045
1561.7546,0.039669
1563.6182,0.038100
1565.4819,0.037621
1567.3456,0.037393
1569.2092,0.037954
1571.0729,0.037805
1572.9366,0.036918
1574.8002,0.037398
1576.6639,0.039095
1578.5276,0.038961
1580.3912,0.038540
1582.2549,0.038782
1584.1186,0.039040
1585.9822,0.039559
1587.8459,0.040142
1589.7096,0.040804
1591.5733,0.041517
1593.4369,0.042426
1595.3006,0.043455
1597.1643,0.044467
1599.0279,0.045377
1600.8916,0.046600
1602.7553,0.047930
1604.6189,0.049276
1606.4826,0.050793
1608.3463,0.052675
1610.2099,0.054208
1612.0736,0.055220
1613.9373,0.056288
1615.8010,0.059137
1617.6646,0.062676
1619.5283,0.063353
1621.3920,0.064108
1623.2556,0.066633
1625.1193,0.068705
1626.9830,0.069836
1628.8466,0.070875
1630.7103,0.070812
1632.5740,0.070621
1634.4376,0.072017
1636.3013,0.074837
1638.1650,0.074723
1640.0286,0.073447
1641.8923,0.072193
1643.7560,0.071319
1645.6197,0.071543
1647.4833,0.071481
1649.3470,0.069610
1651.2107,0.068350
1653.0743,0.070551
1654.9380,0.069828
1656.8017,0.066801
1658.6653,0.064535
1660.5290,0.062751
1662.3927,0.061307
1664.2563,0.059335
1666.1200,0.056951
1667.9837,0.055252
1669.8474,0.053828
1671.7110,0.051924
1673.5747,0.049962
1675.4384,0.048322
1677.3020,0.045716
1679.1657,0.043024
1681.0294,0.040929
1682.8930,0.039799
1684.7567,0.039322
1686.6204,0.036819
1688.4840,0.034563
1690.3477,0.032337
1692.2114,0.030000
1694.0750,0.027966
1695.9387,0.026804
1697.8024,0.025520
1699.6661,0.024917
1701.5297,0.024029
1703.3934,0.022177
1705.2571,0.021237
1707.1207,0.020128
1708.9844,0.018862
1710.8481,0.017624
1712.7117,0.016623
1714.5754,0.016250
1716.4391,0.016562
1718.3027,0.016788
1720.1664,0.015940
1722.0301,0.015049
1723.8937,0.014435
1725.7574,0.013681
1727.6211,0.012956
1729.4848,0.012448
1731.3484,0.012438
1733.2121,0.012795
1735.0758,0.013202
1736.9394,0.012241
1738.8031,0.011924
1740.6668,0.011770
1742.5304,0.011468
1744.3941,0.011125
1746.2578,0.010775
1748.1214,0.010796
1749.9851,0.011054
1751.8488,0.011031
1753.7125,0.010509
1755.5761,0.010183
1757.4398,0.010326
1759.3035,0.010061
1761.1671,0.010045
1763.0308,0.009946
1764.8945,0.009443
1766.7581,0.009036
1768.6218,0.009093
1770.4855,0.009216
1772.3491,0.009888
1774.2128,0.009683
1776.0765,0.009309
1777.9401,0.009126
1779.8038,0.009080
1781.6675,0.009019
1783.5312,0.008934
1785.3948,0.008805
1787.2585,0.008452
1789.1222,0.008281
1790.9858,0.008651
1792.8495,0.009109
1794.7132,0.008804
1796.5768,0.008519
1798.4405,0.008444
1800.3042,0.008528
1802.1678,0.008571
1804.0315,0.008337
1805.8952,0.008136
1807.7589,0.008023
1809.6225,0.008008
1811.4862,0.007996
1813.3499,0.007883
1815.2135,0.007650
1817.0772,0.007644
1818.9409,0.007747
1820.8045,0.007742
1822.6682,0.007545
1824.5319,0.007625
1826.3955,0.007862
1828.2592,0.008024
1830.1229,0.008252
1831.9865,0.008008
1833.8502,0.007812
1835.7139,0.007755
1837.5776,0.007570
1839.4412,0.007448
1841.3049,0.007353
1843.1686,0.007571
1845.0322,0.008026
1846.8959,0.008029
1848.7596,0.007948
1850.6232,0.007739
1852.4869,0.007578
1854.3506,0.007437
1856.2142,0.007415
1858.0779,0.007536
1859.9416,0.007585
1861.8052,0.007408
1863.6689,0.007191
1865.5326,0.007168
1867.3963,0.007429
1869.2599,0.007803
1871.1236,0.007720
1872.9873,0.007680
1874.8509,0.007654
1876.7146,0.007467
1878.5783,0.007289
1880.4419,0.007287
1882.3056,0.007269
1884.1693,0.007311
1886.0329,0.007421
1887.8966,0.007470
1889.7603,0.007469
1891.6240,0.007420
1893.4876,0.007584
1895.3513,0.007747
1897.2150,0.007542
1899.0786,0.007342
1900.9423,0.007274
1902.8060,0.007296
1904.6696,0.007258
1906.5333,0.007338
1908.3970,0.007279
1910.2606,0.007379
1912.1243,0.007624
1913.9880,0.007454
1915.8516,0.007245
1917.7153,0.007522
1919.5790,0.007604
1921.4427,0.007378
1923.3063,0.007338
1925.1700,0.007441
1927.0337,0.007347
1928.8973,0.007197
1930.7610,0.007152
1932.6247,0.007187
1934.4883,0.007408
1936.3520,0.007547
1938.2157,0.007209
1940.0793,0.007224
1941.9430,0.007606
1943.8067,0.007644
1945.6704,0.007465
1947.5340,0.007402
1949.3977,0.007408
1951.2614,0.007328
1953.1250,0.007110
1954.9887,0.007107
1956.8524,0.007073
1958.7160,0.007057
1960.5797,0.007164
1962.4434,0.007467
1964.3070,0.007634
1966.1707,0.007717
1968.0344,0.007846
1969.8980,0.008096
1971.7617,0.008264
1973.6254,0.008187
1975.4891,0.008431
1977.3527,0.009509
1979.2164,0.010422
1981.0801,0.010295
1982.9437,0.009515
1984.8074,0.008954
1986.6711,0.009032
1988.5347,0.009034
1990.3984,0.008456
1992.2621,0.008475
1994.1257,0.008754
1995.9894,0.009027
1997.8531,0.009087
1999.7167,0.008604
2001.5804,0.007715
2003.4441,0.007057
2005.3078,0.007418
2007.1714,0.008531
2009.0351,0.008933
2010.8988,0.008573
2012.7624,0.008465
2014.6261,0.008778
2016.4898,0.008948
2018.3534,0.008823
2020.2171,0.008702
2022.0808,0.009024
2023.9444,0.009277
2025.8081,0.008718
2027.6718,0.008405
2029.5355,0.009126
2031.3991,0.009348
2033.2628,0.009735
2035.1265,0.010502
2036.9901,0.010498
2038.8538,0.010290
2040.7175,0.010302
2042.5811,0.010524
2044.4448,0.010619
2046.3085,0.010632
2048.1721,0.011430
2050.0358,0.012160
2051.8995,0.011702
2053.7631,0.010811
2055.6268,0.010706
2057.4905,0.010724
2059.3542,0.010500
2061.2178,0.010534
2063.0815,0.010921
2064.9452,0.011037
2066.8088,0.010989
2068.6725,0.010916
2070.5362,0.010813
2072.3998,0.010978
2074.2635,0.010793
2076.1272,0.010584
2077.9908,0.010895
2079.8545,0.011024
2081.7182,0.010938
2083.5819,0.010944
2085.4455,0.010904
2087.3092,0.010728
2089.1729,0.010585
2091.0365,0.010293
2092.9002,0.009896
2094.7639,0.009792
2096.6275,0.010138
2098.4912,0.010579
2100.3549,0.010616
2102.2185,0.010356
2104.0822,0.010377
2105.9459,0.010461
2107.8095,0.010413
2109.6732,0.010620
2111.5369,0.010941
2113.4006,0.010736
2115.2642,0.010312
2117.1279,0.010039
2118.9916,0.009533
2120.8552,0.009087
2122.7189,0.009210
2124.5826,0.009225
2126.4462,0.008915
2128.3099,0.008443
2130.1736,0.007714
2132.0372,0.007425
2133.9009,0.007885
2135.7646,0.008357
2137.6282,0.008565
2139.4919,0.008334
2141.3556,0.008079
2143.2193,0.008099
2145.0829,0.008312
2146.9466,0.008392
2148.8103,0.008286
2150.6739,0.008079
2152.5376,0.007675
2154.4013,0.007228
2156.2649,0.007165
2158.1286,0.008797
2159.9923,0.011251
2161.8559,0.011666
2163.7196,0.011161
2165.5833,0.011106
2167.4470,0.010756
2169.3106,0.010156
2171.1743,0.010220
2173.0380,0.010475
2174.9016,0.010146
2176.7653,0.009509
2178.6290,0.009190
2180.4926,0.009381
2182.3563,0.009988
2184.2200,0.010296
2186.0836,0.010187
2187.9473,0.010380
2189.8110,0.010462
2191.6746,0.010066
2193.5383,0.009821
2195.4020,0.009855
2197.2657,0.009903
2199.1293,0.010014
2200.9930,0.010114
2202.8567,0.010056
2204.7203,0.009995
2206.5840,0.009798
2208.4477,0.009563
2210.3113,0.009503
2212.1750,0.009371
2214.0387,0.009183
2215.9023,0.009287
2217.7660,0.009250
2219.6297,0.009101
2221.4934,0.009382
2223.3570,0.009803
2225.2207,0.009912
2227.0844,0.009790
2228.9480,0.009475
2230.8117,0.009067
2232.6754,0.008890
2234.5390,0.009090
2236.4027,0.009393
2238.2664,0.009347
2240.1300,0.008928
2241.9937,0.008761
2243.8574,0.009061
2245.7210,0.009081
2247.5847,0.008817
2249.4484,0.008668
2251.3121,0.008540
2253.1757,0.008648
2255.0394,0.008877
2256.9031,0.008863
2258.7667,0.008879
2260.6304,0.009012
2262.4941,0.008986
2264.3577,0.008826
2266.2214,0.008979
2268.0851,0.009300
2269.9487,0.009151
2271.8124,0.008785
2273.6761,0.008868
2275.5397,0.009125
2277.4034,0.009146
2279.2671,0.009165
2281.1308,0.009141
2282.9944,0.009239
2284.8581,0.009516
2286.7218,0.009503
2288.5854,0.009298
2290.4491,0.009177
2292.3128,0.009104
2294.1764,0.008839
2296.0401,0.008590
2297.9038,0.008534
2299.7674,0.008510
2301.6311,0.008503
2303.4948,0.008607
2305.3585,0.008592
2307.2221,0.008516
2309.0858,0.008550
2310.9495,0.008657
2312.8131,0.008726
2314.6768,0.008822
2316.5405,0.009097
2318.4041,0.009483
2320.2678,0.009797
2322.1315,0.010156
2323.9951,0.010248
2325.8588,0.009429
2327.7225,0.008403
2329.5861,0.008208
2331.4498,0.008434
2333.3135,0.008408
2335.1772,0.008191
2337.0408,0.008355
2338.9045,0.008861
2340.7682,0.009153
2342.6318,0.009238
2344.4955,0.009080
2346.3592,0.008441
2348.2228,0.007492
2350.0865,0.006875
2351.9502,0.006905
2353.8138,0.007435
2355.6775,0.007958
2357.5412,0.008379
2359.4049,0.008541
2361.2685,0.008831
2363.1322,0.009081
2364.9959,0.008773
2366.8595,0.008441
2368.7232,0.008523
2370.5869,0.008406
2372.4505,0.008120
2374.3142,0.007716
2376.1779,0.007404
2378.0415,0.007171
2379.9052,0.006751
2381.7689,0.006349
2383.6325,0.006103
2385.4962,0.005950
2387.3599,0.005817
2389.2236,0.005726
2391.0872,0.005721
2392.9509,0.005669
2394.8146,0.005695
2396.6782,0.005710
2398.5419,0.005592
2400.4056,0.005519
2402.2692,0.005594
2404.1329,0.005588
2405.9966,0.005588
2407.8602,0.005669
2409.7239,0.005635
2411.5876,0.005631
2413.4512,0.005711
2415.3149,0.005720
2417.1786,0.005658
2419.0423,0.005612
2420.9059,0.005666
2422.7696,0.005753
2424.6333,0.005778
2426.4969,0.005799
2428.3606,0.005905
2430.2243,0.005956
2432.0879,0.005845
2433.9516,0.005796
2435.8153,0.005852
2437.6789,0.005957
2439.5426,0.006035
2441.4063,0.006099
2443.2700,0.006153
2445.1336,0.006109
2446.9973,0.005991
2448.8610,0.005916
2450.7246,0.005964
2452.5883,0.005993
2454.4520,0.005929
2456.3156,0.005905
2458.1793,0.005962
2460.0430,0.005998
2461.9066,0.005994
2463.7703,0.005969
2465.6340,0.005923
2467.4976,0.005890
2469.3613,0.005798
2471.2250,0.005621
2473.0887,0.005523
2474.9523,0.005658
2476.8160,0.005701
2478.6797,0.005711
2480.5433,0.005701
2482.4070,0.005603
2484.2707,0.005681
2486.1343,0.005697
2487.9980,0.005657
2489.8617,0.005681
2491.7253,0.005546
2493.5890,0.005470
2495.4527,0.005577
2497.3164,0.005610
2499.1800,0.005604
2501.0437,0.005698
2502.9074,0.005704
2504.7710,0.005724
2506.6347,0.005835
2508.4984,0.005771
2510.3620,0.005787
2512.2257,0.005751
2514.0894,0.005564
2515.9530,0.005524
2517.8167,0.005502
2519.6804,0.005537
2521.5440,0.005604
2523.4077,0.005667
2525.2714,0.005741
2527.1351,0.005732
2528.9987,0.005640
2530.8624,0.005615
2532.7261,0.005740
2534.5897,0.005814
2536.4534,0.005671
2538.3171,0.005645
2540.1807,0.005833
2542.0444,0.005716
2543.9081,0.005508
2545.7717,0.005622
2547.6354,0.005689
2549.4991,0.005714
2551.3627,0.005682
2553.2264,0.005659
2555.0901,0.005713
2556.9538,0.005680
2558.8174,0.005660
2560.6811,0.005733
2562.5448,0.005778
2564.4084,0.005818
2566.2721,0.005745
2568.1358,0.005668
2569.9994,0.005638
2571.8631,0.005702
2573.7268,0.005659
2575.5904,0.005712
2577.4541,0.005814
2579.3178,0.005830
2581.1815,0.005873
2583.0451,0.005982
2584.9088,0.005947
2586.7725,0.005868
2588.6361,0.005844
2590.4998,0.005926
2592.3635,0.006022
2594.2271,0.006041
2596.0908,0.005979
2597.9545,0.005993
2599.8181,0.006039
2601.6818,0.006119
2603.5455,0.006117
2605.4091,0.006098
2607.2728,0.006166
2609.1365,0.006133
2611.0002,0.005978
2612.8638,0.006083
2614.7275,0.006213
2616.5912,0.006172
2618.4548,0.006170
2620.3185,0.006220
2622.1822,0.006197
2624.0458,0.006154
2625.9095,0.006257
2627.7732,0.006395
2629.6368,0.006386
2631.5005,0.006315
2633.3642,0.006382
2635.2279,0.006497
2637.0915,0.006500
2638.9552,0.006463
2640.8189,0.006447
2642.6825,0.006366
2644.5462,0.006358
2646.4099,0.006481
2648.2735,0.006537
2650.1372,0.006503
2652.0009,0.006460
2653.8645,0.006437
2655.7282,0.006307
2657.5919,0.006204
2659.4555,0.006155
2661.3192,0.006007
2663.1829,0.005869
2665.0466,0.005792
2666.9102,0.005739
2668.7739,0.005722
2670.6376,0.005701
2672.5012,0.005690
2674.3649,0.005686
2676.2286,0.005713
2678.0922,0.005722
2679.9559,0.005719
2681.8196,0.005767
2683.6832,0.005783
2685.5469,0.005822
2687.4106,0.005836
2689.2742,0.005828
2691.1379,0.005887
2693.0016,0.005919
2694.8653,0.005919
2696.7289,0.005916
2698.5926,0.005934
2700.4563,0.006024
2702.3199,0.006084
2704.1836,0.006041
2706.0473,0.006070
2707.9109,0.006072
2709.7746,0.006028
2711.6383,0.006015
2713.5019,0.006141
2715.3656,0.006196
2717.2293,0.006231
2719.0930,0.006289
2720.9566,0.006281
2722.8203,0.006307
2724.6840,0.006340
2726.5476,0.006328
2728.4113,0.006339
2730.2750,0.006339
2732.1386,0.006363
2734.0023,0.006453
2735.8660,0.006530
2737.7296,0.006545
2739.5933,0.006566
2741.4570,0.006615
2743.3206,0.006718
2745.1843,0.006701
2747.0480,0.006716
2748.9117,0.006804
2750.7753,0.006782
2752.6390,0.006727
2754.5027,0.006750
2756.3663,0.006823
2758.2300,0.006871
2760.0937,0.006982
2761.9573,0.007019
2763.8210,0.007020
2765.6847,0.007005
2767.5483,0.007063
2769.4120,0.007192
2771.2757,0.007230
2773.1394,0.007316
2775.0030,0.007338
2776.8667,0.007313
2778.7304,0.007363
2780.5940,0.007398
2782.4577,0.007417
2784.3214,0.007474
2786.1850,0.007528
2788.0487,0.007581
2789.9124,0.007662
2791.7760,0.007701
2793.6397,0.007737
2795.5034,0.007829
2797.3670,0.007950
2799.2307,0.007988
2801.0944,0.008085
2802.9581,0.008158
2804.8217,0.008092
2806.6854,0.008142
2808.5491,0.008270
2810.4127,0.008309
2812.2764,0.008389
2814.1401,0.008497
2816.0037,0.008601
2817.8674,0.008611
2819.7311,0.008638
2821.5947,0.008699
2823.4584,0.008750
2825.3221,0.008911
2827.1857,0.008943
2829.0494,0.008981
2830.9131,0.009170
2832.7768,0.009302
2834.6404,0.009299
2836.5041,0.009387
2838.3678,0.009497
2840.2314,0.009460
2842.0951,0.009529
2843.9588,0.009761
2845.8224,0.009931
2847.6861,0.010113
2849.5498,0.010345
2851.4134,0.010542
2853.2771,0.010649
2855.1408,0.010766
2857.0045,0.010905
2858.8681,0.011020
2860.7318,0.011120
2862.5955,0.011147
2864.4591,0.011224
2866.3228,0.011404
2868.1865,0.011552
2870.0501,0.011676
2871.9138,0.011808
2873.7775,0.011925
2875.6411,0.012018
2877.5048,0.012153
2879.3685,0.012227
2881.2321,0.012284
2883.0958,0.012319
2884.9595,0.012376
2886.8232,0.012477
2888.6868,0.012586
2890.5505,0.012690
2892.4142,0.012827
2894.2778,0.012909
2896.1415,0.013130
2898.0052,0.013232
2899.8688,0.013324
2901.7325,0.013529
2903.5962,0.013669
2905.4598,0.013765
2907.3235,0.013932
2909.1872,0.014071
2911.0509,0.014299
2912.9145,0.014528
2914.7782,0.014689
2916.6419,0.014838
2918.5055,0.015121
2920.3692,0.015425
2922.2329,0.015699
2924.0965,0.015859
2925.9602,0.015919
2927.8239,0.016100
2929.6875,0.016313
2931.5512,0.016321
2933.4149,0.016486
2935.2785,0.016676
2937.1422,0.016856
2939.0059,0.016970
2940.8696,0.017040
2942.7332,0.017039
2944.5969,0.017031
2946.4606,0.016943
2948.3242,0.017027
2950.1879,0.017071
2952.0516,0.017091
2953.9152,0.017264
2955.7789,0.017488
2957.6426,0.017604
2959.5062,0.017658
2961.3699,0.017700
2963.2336,0.017806
2965.0972,0.017880
2966.9609,0.017996
2968.8246,0.017966
2970.6883,0.017870
2972.5519,0.017857
2974.4156,0.018016
2976.2793,0.018017
2978.1429,0.017894
2980.0066,0.017903
2981.8703,0.018026
2983.7339,0.018015
2985.5976,0.018066
2987.4613,0.018060
2989.3249,0.018259
2991.1886,0.018490
2993.0523,0.018651
2994.9160,0.018673
2996.7796,0.018714
2998.6433,0.018891
3000.5070,0.019122
3002.3706,0.019235
3004.2343,0.019453
3006.0980,0.019620
3007.9616,0.019752
3009.8253,0.019960
3011.6890,0.020234
3013.5526,0.020422
3015.4163,0.020614
3017.2800,0.020806
3019.1436,0.021084
3021.0073,0.021346
3022.8710,0.021675
3024.7347,0.021947
3026.5983,0.022100
3028.4620,0.022339
3030.3257,0.022815
3032.1893,0.023120
3034.0530,0.023187
3035.9167,0.023495
3037.7803,0.024027
3039.6440,0.024298
3041.5077,0.024571
3043.3713,0.024839
3045.2350,0.025274
3047.0987,0.025661
3048.9624,0.025974
3050.8260,0.026160
3052.6897,0.026530
3054.5534,0.026918
3056.4170,0.027383
3058.2807,0.027724
3060.1444,0.028078
3062.0080,0.028491
3063.8717,0.028916
3065.7354,0.029186
3067.5990,0.029534
3069.4627,0.029864
3071.3264,0.030301
3073.1900,0.030667
3075.0537,0.031086
3076.9174,0.031430
3078.7811,0.031717
3080.6447,0.032049
3082.5084,0.032561
3084.3721,0.032965
3086.2357,0.033266
3088.0994,0.033422
3089.9631,0.033851
3091.8267,0.034327
3093.6904,0.034758
3095.5541,0.035114
3097.4177,0.035604
3099.2814,0.035971
3101.1451,0.036453
3103.0087,0.036927
3104.8724,0.037376
3106.7361,0.037619
3108.5998,0.038096
3110.4634,0.038525
3112.3271,0.039019
3114.1908,0.039569
3116.0544,0.040066
3117.9181,0.040424
3119.7818,0.040915
3121.6454,0.041453
3123.5091,0.042149
3125.3728,0.042724
3127.2364,0.043327
3129.1001,0.043834
3130.9638,0.044377
3132.8275,0.044846
3134.6911,0.045546
3136.5548,0.045978
3138.4185,0.046385
3140.2821,0.046984
3142.1458,0.047862
3144.0095,0.048553
3145.8731,0.049210
3147.7368,0.049870
3149.6005,0.050499
3151.4641,0.051041
3153.3278,0.051619
3155.1915,0.052145
3157.0551,0.053055
3158.9188,0.053838
3160.7825,0.054503
3162.6462,0.055138
3164.5098,0.055922
3166.3735,0.056564
3168.2372,0.057204
3170.1008,0.057770
3171.9645,0.058517
3173.8282,0.059215
3175.6918,0.059987
3177.5555,0.060667
3179.4192,0.061589
3181.2828,0.062247
3183.1465,0.062967
3185.0102,0.063440
3186.8739,0.064091
3188.7375,0.064723
3190.6012,0.065393
3192.4649,0.066104
3194.3285,0.066979
3196.1922,0.067457
3198.0559,0.068062
3199.9195,0.068741
3201.7832,0.069485
3203.6469,0.069873
3205.5105,0.070457
3207.3742,0.071108
3209.2379,0.071863
3211.1015,0.072491
3212.9652,0.073065
3214.8289,0.073400
3216.6926,0.074057
3218.5562,0.074759
3220.4199,0.075358
3222.2836,0.075743
3224.1472,0.076268
3226.0109,0.076734
3227.8746,0.077441
3229.7382,0.077844
3231.6019,0.078062
3233.4656,0.078334
3235.3292,0.079019
3237.1929,0.079534
3239.0566,0.080126
3240.9202,0.080584
3242.7839,0.080954
3244.6476,0.081205
3246.5113,0.081840
3248.3749,0.082324
3250.2386,0.082797
3252.1023,0.083136
3253.9659,0.083434
3255.8296,0.083579
3257.6933,0.084241
3259.5569,0.084732
3261.4206,0.085120
3263.2843,0.085425
3265.1479,0.085938
3267.0116,0.086169
3268.8753,0.086522
3270.7390,0.086717
3272.6026,0.086959
3274.4663,0.087122
3276.3300,0.087733
3278.1936,0.088146
3280.0573,0.088258
3281.9210,0.088386
3283.7846,0.088861
3285.6483,0.089119
3287.5120,0.089489
3289.3756,0.089545
3291.2393,0.089787
3293.1030,0.090022
3294.9666,0.090391
3296.8303,0.090662
3298.6940,0.091086
3300.5577,0.091175
3302.4213,0.091511
3304.2850,0.091685
3306.1487,0.091910
3308.0123,0.092135
3309.8760,0.092477
3311.7397,0.092703
3313.6033,0.093086
3315.4670,0.093217
3317.3307,0.093530
3319.1943,0.093781
3321.0580,0.093995
3322.9217,0.093995
3324.7854,0.094179
3326.6490,0.094186
3328.5127,0.094563
3330.3764,0.095086
3332.2400,0.095512
3334.1037,0.095583
3335.9674,0.095789
3337.8310,0.095969
3339.6947,0.096376
3341.5584,0.096482
3343.4220,0.096746
3345.2857,0.096922
3347.1494,0.097299
3349.0130,0.097417
3350.8767,0.097572
3352.7404,0.097618
3354.6041,0.097661
3356.4677,0.097538
3358.3314,0.097807
3360.1951,0.097813
3362.0587,0.097879
3363.9224,0.097971
3365.7861,0.097951
3367.6497,0.097689
3369.5134,0.097978
3371.3771,0.098320
3373.2407,0.098463
3375.1044,0.098202
3376.9681,0.098240
3378.8317,0.098054
3380.6954,0.098053
3382.5591,0.097922
3384.4228,0.097825
3386.2864,0.097629
3388.1501,0.097589
3390.0138,0.097136
3391.8774,0.096959
3393.7411,0.096996
3395.6048,0.096712
3397.4684,0.095929
3399.3321,0.095781
3401.1958,0.096038
3403.0594,0.096267
3404.9231,0.096035
3406.7868,0.095790
3408.6505,0.095079
3410.5141,0.094549
3412.3778,0.094414
3414.2415,0.094320
3416.1051,0.093736
3417.9688,0.093648
3419.8325,0.093341
3421.6961,0.092763
3423.5598,0.092311
3425.4235,0.092114
3427.2871,0.091428
3429.1508,0.090910
3431.0145,0.090317
3432.8781,0.089856
3434.7418,0.089442
3436.6055,0.089170
3438.4692,0.088673
3440.3328,0.088288
3442.1965,0.087764
3444.0602,0.087335
3445.9238,0.086782
3447.7875,0.086372
3449.6512,0.085864
3451.5148,0.085329
3453.3785,0.084627
3455.2422,0.084003
3457.1058,0.083092
3458.9695,0.082487
3460.8332,0.082026
3462.6969,0.081571
3464.5605,0.080774
3466.4242,0.080122
3468.2879,0.079422
3470.1515,0.078918
3472.0152,0.078455
3473.8789,0.077966
3475.7425,0.076994
3477.6062,0.076169
3479.4699,0.075591
3481.3335,0.075163
3483.1972,0.074440
3485.0609,0.073853
3486.9245,0.073172
3488.7882,0.072552
3490.6519,0.071771
3492.5156,0.071237
3494.3792,0.070526
3496.2429,0.069671
3498.1066,0.068906
3499.9702,0.068174
3501.8339,0.067364
3503.6976,0.067031
3505.5612,0.066532
3507.4249,0.065986
3509.2886,0.065203
3511.1522,0.064359
3513.0159,0.063461
3514.8796,0.062607
3516.7432,0.061876
3518.6069,0.061264
3520.4706,0.060485
3522.3343,0.059762
3524.1979,0.058993
3526.0616,0.058483
3527.9253,0.057975
3529.7889,0.057491
3531.6526,0.056554
3533.5163,0.055701
3535.3799,0.055027
3537.2436,0.054371
3539.1073,0.053535
3540.9709,0.052759
3542.8346,0.051971
3544.6983,0.051341
3546.5620,0.050857
3548.4256,0.050571
3550.2893,0.049942
3552.1530,0.048984
3554.0166,0.048075
3555.8803,0.047321
3557.7440,0.046286
3559.6076,0.045486
3561.4713,0.044845
3563.3350,0.044293
3565.1986,0.043817
3567.0623,0.043641
3568.9260,0.043478
3570.7896,0.042927
3572.6533,0.041615
3574.5170,0.040469
3576.3807,0.039797
3578.2443,0.039119
3580.1080,0.038280
3581.9717,0.037480
3583.8353,0.036515
3585.6990,0.036073
3587.5627,0.036113
3589.4263,0.035935
3591.2900,0.035254
3593.1537,0.034463
3595.0173,0.033814
3596.8810,0.033320
3598.7447,0.032721
3600.6084,0.031933
3602.4720,0.030962
3604.3357,0.030105
3606.1994,0.029255
3608.0630,0.028694
3609.9267,0.028556
3611.7904,0.028317
3613.6540,0.027325
3615.5177,0.026426
3617.3814,0.025935
3619.2450,0.025391
3621.1087,0.024971
3622.9724,0.024407
3624.8360,0.023275
3626.6997,0.022271
3628.5634,0.022039
3630.4271,0.022430
3632.2907,0.022118
3634.1544,0.021026
3636.0181,0.020023
3637.8817,0.019271
3639.7454,0.018149
3641.6091,0.017138
3643.4727,0.016340
3645.3364,0.015604
3647.2001,0.014797
3649.0637,0.014776
3650.9274,0.015248
3652.7911,0.015044
3654.6547,0.014235
3656.5184,0.013199
3658.3821,0.012500
3660.2458,0.011935
3662.1094,0.011045
3663.9731,0.010363
3665.8368,0.009519
3667.7004,0.008722
3669.5641,0.008489
3671.4278,0.008752
3673.2914,0.008629
3675.1551,0.008447
3677.0188,0.008161
3678.8824,0.008043
3680.7461,0.007331
3682.6098,0.006705
3684.4735,0.006141
3686.3371,0.005626
3688.2008,0.005606
3690.0645,0.006026
3691.9281,0.006457
3693.7918,0.006231
3695.6555,0.005717
3697.5191,0.005225
3699.3828,0.004772
3701.2465,0.004511
3703.1101,0.004484
3704.9738,0.004279
3706.8375,0.003840
3708.7011,0.003659
3710.5648,0.003867
3712.4285,0.004486
3714.2922,0.004590
3716.1558,0.004086
3718.0195,0.003581
3719.8832,0.003381
3721.7468,0.003314
3723.6105,0.003363
3725.4742,0.003538
3727.3378,0.003471
3729.2015,0.003113
3731.0652,0.002730
3732.9288,0.002490
3734.7925,0.002943
3736.6562,0.003441
3738.5199,0.003330
3740.3835,0.002616
3742.2472,0.002129
3744.1109,0.002335
3745.9745,0.002643
3747.8382,0.003040
3749.7019,0.002947
3751.5655,0.003402
3753.4292,0.003863
3755.2929,0.003472
3757.1565,0.003124
3759.0202,0.002990
3760.8839,0.003040
3762.7475,0.002850
3764.6112,0.002776
3766.4749,0.002621
3768.3386,0.002729
3770.2022,0.002784
3772.0659,0.002918
3773.9296,0.002970
3775.7932,0.002709
3777.6569,0.002421
3779.5206,0.002459
3781.3842,0.002717
3783.2479,0.002873
3785.1116,0.002726
3786.9752,0.002671
3788.8389,0.002379
3790.7026,0.002181
3792.5662,0.002131
3794.4299,0.001991
3796.2936,0.001845
3798.1573,0.001960
3800.0209,0.002210
3801.8846,0.002251
3803.7483,0.002571
3805.6119,0.002763
3807.4756,0.002350
3809.3393,0.002260
3811.2029,0.002069
3813.0666,0.001599
3814.9303,0.001593
3816.7939,0.001873
3818.6576,0.002196
3820.5213,0.002451
3822.3850,0.002627
3824.2486,0.002906
3826.1123,0.002446
3827.9760,0.001821
3829.8396,0.001499
3831.7033,0.001466
3833.5670,0.001632
3835.4306,0.001875
3837.2943,0.001983
3839.1580,0.002245
3841.0216,0.002322
3842.8853,0.002288
3844.7490,0.001978
3846.6126,0.001804
3848.4763,0.001537
3850.3400,0.001274
3852.2037,0.001299
3854.0673,0.001811
3855.9310,0.002665
3857.7947,0.002732
3859.6583,0.001981
3861.5220,0.001512
3863.3857,0.001584
3865.2493,0.001985
3867.1130,0.001895
3868.9767,0.001891
3870.8403,0.001835
3872.7040,0.002375
3874.5677,0.002169
3876.4314,0.002022
3878.2950,0.001908
3880.1587,0.001681
3882.0224,0.001813
3883.8860,0.002063
3885.7497,0.002033
3887.6134,0.002026
3889.4770,0.001992
3891.3407,0.001957
3893.2044,0.002105
3895.0680,0.001979
3896.9317,0.001649
3898.7954,0.001516
3900.6590,0.001650
3902.5227,0.002239
3904.3864,0.002562
3906.2501,0.002555
3908.1137,0.002302
3909.9774,0.002105
3911.8411,0.001908
3913.7047,0.001629
3915.5684,0.001514
3917.4321,0.001854
3919.2957,0.002181
3921.1594,0.002137
3923.0231,0.001851
3924.8867,0.001742
3926.7504,0.001888
3928.6141,0.002167
3930.4777,0.002118
3932.3414,0.002102
3934.2051,0.002025
3936.0688,0.002018
3937.9324,0.001875
3939.7961,0.001849
3941.6598,0.001905
3943.5234,0.002124
3945.3871,0.002187
3947.2508,0.002026
3949.1144,0.002011
3950.9781,0.002078
3952.8418,0.001936
3954.7054,0.001931
3956.5691,0.001928
3958.4328,0.002026
3960.2965,0.001860
3962.1601,0.001778
3964.0238,0.001998
3965.8875,0.002115
3967.7511,0.001823
3969.6148,0.001733
3971.4785,0.001887
3973.3421,0.001991
3975.2058,0.001985
3977.0695,0.001897
3978.9331,0.001736
3980.7968,0.001776
3982.6605,0.001783
3984.5241,0.001881
3986.3878,0.001917
3988.2515,0.001962
3990.1152,0.001947
3991.9788,0.002012
3993.8425,0.001892
3995.7062,0.001820
3997.5698,0.001743
3999.4335,0.001817
