Wavenumber,Intensity
650.4205,0.068686
652.2841,0.068380
654.1478,0.067775
656.0115,0.067356
657.8751,0.066516
659.7388,0.065995
661.6025,0.065852
663.4661,0.064393
665.3298,0.062574
667.1935,0.063134
669.0571,0.065422
670.9208,0.064684
672.7845,0.063414
674.6481,0.061967
676.5118,0.061371
678.3755,0.061554
680.2392,0.061452
682.1028,0.060910
683.9665,0.060050
685.8302,0.060006
687.6938,0.060316
689.5575,0.059807
691.4212,0.059070
693.2848,0.058740
695.1485,0.058434
697.0122,0.058120
698.8758,0.058183
700.7395,0.058316
702.6032,0.057851
704.4669,0.057237
706.3305,0.057035
708.1942,0.056702
710.0579,0.056472
711.9215,0.056339
713.7852,0.055767
715.6489,0.055418
717.5125,0.055444
719.3762,0.055053
721.2399,0.054541
723.1035,0.054289
724.9672,0.053973
726.8309,0.053532
728.6945,0.053148
730.5582,0.053149
732.4219,0.053007
734.2856,0.052658
736.1492,0.052573
738.0129,0.052418
739.8766,0.052039
741.7402,0.051822
743.6039,0.051515
745.4676,0.050943
747.3312,0.050485
749.1949,0.050139
751.0586,0.049673
752.9222,0.049254
754.7859,0.048811
756.6496,0.048445
758.5132,0.048192
760.3769,0.048111
762.2406,0.048033
764.1043,0.047613
765.9679,0.047069
767.8316,0.046648
769.6953,0.046342
771.5589,0.045961
773.4226,0.045411
775.2863,0.044966
777.1499,0.044627
779.0136,0.044217
780.8773,0.043772
782.7409,0.043471
784.6046,0.043117
786.4683,0.042751
788.3320,0.042380
790.1956,0.041940
792.0593,0.041369
793.9230,0.040785
795.7866,0.040387
797.6503,0.040020
799.5140,0.039705
801.3776,0.039319
803.2413,0.038723
805.1050,0.038383
806.9686,0.038111
808.8323,0.037734
810.6960,0.037463
812.5596,0.036877
814.4233,0.036182
816.2870,0.036076
818.1507,0.035908
820.0143,0.035324
821.8780,0.034773
823.7417,0.034437
825.6053,0.034152
827.4690,0.033832
829.3327,0.033463
831.1963,0.033182
833.0600,0.032970
834.9237,0.032723
836.7873,0.032363
838.6510,0.032019
840.5147,0.031761
842.3784,0.031521
844.2420,0.031278
846.1057,0.030981
847.9694,0.030696
849.8330,0.030588
851.6967,0.030442
853.5604,0.030208
855.4240,0.030016
857.2877,0.029894
859.1514,0.029769
861.0150,0.029640
862.8787,0.029510
864.7424,0.029253
866.6060,0.028947
868.4697,0.028822
870.3334,0.028786
872.1971,0.028564
874.0607,0.028332
875.9244,0.028399
877.7881,0.028405
879.6517,0.028211
881.5154,0.028036
883.3791,0.027907
885.2427,0.027764
887.1064,0.027538
888.9701,0.027261
890.8337,0.027055
892.6974,0.026871
894.5611,0.026622
896.4247,0.026400
898.2884,0.026295
900.1521,0.026244
902.0158,0.026104
903.8794,0.025948
905.7431,0.025870
907.6068,0.025786
909.4704,0.025702
911.3341,0.025581
913.1978,0.025500
915.0614,0.025400
916.9251,0.025366
918.7888,0.025372
920.6524,0.025303
922.5161,0.025204
924.3798,0.025103
926.2435,0.025034
928.1071,0.025013
929.9708,0.024965
931.8345,0.024842
933.6981,0.024699
935.5618,0.024599
937.4255,0.024515
939.2891,0.024446
941.1528,0.024403
943.0165,0.024333
944.8801,0.024279
946.7438,0.024276
948.6075,0.024250
950.4711,0.024202
952.3348,0.024129
954.1985,0.024076
956.0622,0.024006
957.9258,0.023961
959.7895,0.023959
961.6532,0.023952
963.5168,0.024000
965.3805,0.024078
967.2442,0.024146
969.1078,0.024280
970.9715,0.024396
972.8352,0.024521
974.6988,0.024672
976.5625,0.024882
978.4262,0.025089
980.2899,0.025207
982.1535,0.025228
984.0172,0.025315
985.8809,0.025424
987.7445,0.025467
989.6082,0.025570
991.4719,0.025771
993.3355,0.025876
995.1992,0.025931
997.0629,0.026030
998.9265,0.026164
1000.7902,0.026340
1002.6539,0.026456
1004.5175,0.026554
1006.3812,0.026761
1008.2449,0.026991
1010.1086,0.027147
1011.9722,0.027279
1013.8359,0.027501
1015.6996,0.027831
1017.5632,0.028145
1019.4269,0.028460
1021.2906,0.028796
1023.1542,0.029118
1025.0179,0.029469
1026.8816,0.029874
1028.7452,0.030204
1030.6089,0.030508
1032.4726,0.030938
1034.3362,0.031392
1036.1999,0.031838
1038.0636,0.032366
1039.9273,0.032933
1041.7909,0.033439
1043.6546,0.033884
1045.5183,0.034148
1047.3819,0.034172
1049.2456,0.033932
1051.1093,0.033501
1052.9729,0.032947
1054.8366,0.032508
1056.7003,0.032279
1058.5639,0.032156
1060.4276,0.032083
1062.2913,0.032163
1064.1550,0.032291
1066.0186,0.032409
1067.8823,0.032591
1069.7460,0.032867
1071.6096,0.033137
1073.4733,0.033459
1075.3370,0.033820
1077.2006,0.034177
1079.0643,0.034474
1080.9280,0.034711
1082.7916,0.034862
1084.6553,0.034838
1086.5190,0.034641
1088.3826,0.034378
1090.2463,0.034044
1092.1100,0.033702
1093.9737,0.033386
1095.8373,0.033077
1097.7010,0.032748
1099.5647,0.032507
1101.4283,0.032316
1103.2920,0.032063
1105.1557,0.031797
1107.0193,0.031578
1108.8830,0.031317
1110.7467,0.031064
1112.6103,0.030847
1114.4740,0.030592
1116.3377,0.030315
1118.2014,0.030004
1120.0650,0.029646
1121.9287,0.029293
1123.7924,0.028941
1125.6560,0.028573
1127.5197,0.028153
1129.3834,0.027761
1131.2470,0.027404
1133.1107,0.027073
1134.9744,0.026710
1136.8380,0.026362
1138.7017,0.026029
1140.5654,0.025768
1142.4290,0.025553
1144.2927,0.025299
1146.1564,0.025009
1148.0201,0.024728
1149.8837,0.024492
1151.7474,0.024306
1153.6111,0.024100
1155.4747,0.023908
1157.3384,0.023762
1159.2021,0.023673
1161.0657,0.023585
1162.9294,0.023492
1164.7931,0.023435
1166.6567,0.023396
1168.5204,0.023343
1170.3841,0.023301
1172.2477,0.023312
1174.1114,0.023341
1175.9751,0.023363
1177.8388,0.023395
1179.7024,0.023498
1181.5661,0.023581
1183.4298,0.023678
1185.2934,0.023809
1187.1571,0.023920
1189.0208,0.024005
1190.8844,0.024104
1192.7481,0.024263
1194.6118,0.024377
1196.4754,0.024485
1198.3391,0.024569
1200.2028,0.024643
1202.0665,0.024719
1203.9301,0.024774
1205.7938,0.024816
1207.6575,0.024845
1209.5211,0.024854
1211.3848,0.024938
1213.2485,0.024996
1215.1121,0.024985
1216.9758,0.024998
1218.8395,0.025011
1220.7031,0.024941
1222.5668,0.024837
1224.4305,0.024775
1226.2941,0.024689
1228.1578,0.024566
1230.0215,0.024450
1231.8852,0.024329
1233.7488,0.024273
1235.6125,0.024182
1237.4762,0.024059
1239.3398,0.023994
1241.2035,0.023992
1243.0672,0.023973
1244.9308,0.023910
1246.7945,0.023810
1248.6582,0.023727
1250.5218,0.023689
1252.3855,0.023667
1254.2492,0.023551
1256.1129,0.023405
1257.9765,0.023295
1259.8402,0.023234
1261.7039,0.023191
1263.5675,0.023092
1265.4312,0.022969
1267.2949,0.022842
1269.1585,0.022790
1271.0222,0.022761
1272.8859,0.022701
1274.7495,0.022593
1276.6132,0.022491
1278.4769,0.022470
1280.3405,0.022483
1282.2042,0.022493
1284.0679,0.022514
1285.9316,0.022572
1287.7952,0.022678
1289.6589,0.022760
1291.5226,0.022746
1293.3862,0.022741
1295.2499,0.022778
1297.1136,0.022864
1298.9772,0.022888
1300.8409,0.022941
1302.7046,0.023007
1304.5682,0.023081
1306.4319,0.023169
1308.2956,0.023243
1310.1592,0.023227
1312.0229,0.023320
1313.8866,0.023454
1315.7503,0.023429
1317.6139,0.023500
1319.4776,0.023664
1321.3413,0.023636
1323.2049,0.023530
1325.0686,0.023504
1326.9323,0.023527
1328.7959,0.023593
1330.6596,0.023669
1332.5233,0.023689
1334.3869,0.023655
1336.2506,0.023803
1338.1143,0.024329
1339.9780,0.024804
1341.8416,0.024651
1343.7053,0.024462
1345.5690,0.024627
1347.4326,0.024738
1349.2963,0.024832
1351.1600,0.024810
1353.0236,0.024712
1354.8873,0.024604
1356.7510,0.024326
1358.6146,0.024023
1360.4783,0.024159
1362.3420,0.024787
1364.2056,0.024863
1366.0693,0.024299
1367.9330,0.024282
1369.7967,0.024328
1371.6603,0.024252
1373.5240,0.024885
1375.3877,0.025471
1377.2513,0.025219
1379.1150,0.025294
1380.9787,0.025299
1382.8423,0.025241
1384.7060,0.025384
1386.5697,0.026247
1388.4333,0.026765
1390.2970,0.026132
1392.1607,0.025988
1394.0244,0.026892
1395.8880,0.027763
1397.7517,0.027795
1399.6154,0.028173
1401.4790,0.027762
1403.3427,0.027720
1405.2064,0.028471
1407.0700,0.028450
1408.9337,0.028213
1410.7974,0.028239
1412.6610,0.027920
1414.5247,0.027353
1416.3884,0.027342
1418.2520,0.028366
1420.1157,0.028823
1421.9794,0.027410
1423.8431,0.026861
1425.7067,0.026431
1427.5704,0.025762
1429.4341,0.025845
1431.2977,0.025411
1433.1614,0.024626
1435.0251,0.024893
1436.8887,0.026514
1438.7524,0.025933
1440.6161,0.024821
1442.4797,0.024554
1444.3434,0.024348
1446.2071,0.024614
1448.0707,0.025268
1449.9344,0.024914
1451.7981,0.023969
1453.6618,0.023628
1455.5254,0.024814
1457.3891,0.028202
1459.2528,0.026938
1461.1164,0.024818
1462.9801,0.024320
1464.8438,0.025302
1466.7074,0.024691
1468.5711,0.023425
1470.4348,0.023251
1472.2984,0.025133
1474.1621,0.025773
1476.0258,0.024963
1477.8895,0.024213
1479.7531,0.023557
1481.6168,0.023494
1483.4805,0.023062
1485.3441,0.022756
1487.2078,0.023631
1489.0715,0.025000
1490.9351,0.025285
1492.7988,0.023810
1494.6625,0.023399
1496.5261,0.025001
1498.3898,0.025684
1500.2535,0.024667
1502.1171,0.023348
1503.9808,0.022963
1505.8445,0.026296
1507.7082,0.030006
1509.5718,0.028027
1511.4355,0.026539
1513.2992,0.026144
1515.1628,0.026189
1517.0265,0.027245
1518.8902,0.027445
1520.7538,0.028759
1522.6175,0.030222
1524.4812,0.029473
1526.3448,0.029819
1528.2085,0.029659
1530.0722,0.029130
1531.9359,0.029552
1533.7995,0.031054
1535.6632,0.029974
1537.5269,0.029136
1539.3905,0.032886
1541.2542,0.036162
1543.1179,0.035309
1544.9815,0.034659
1546.8452,0.033805
1548.7089,0.033446
1550.5725,0.033905
1552.4362,0.033151
1554.2999,0.032894
1556.1635,0.033184
1558.0272,0.037005
1559.8909,0.040829
1561.7546,0.036905
1563.6182,0.034716
1565.4819,0.034681
1567.3456,0.034772
1569.2092,0.035943
1571.0729,0.035970
1572.9366,0.034672
1574.8002,0.035611
1576.6639,0.038237
1578.5276,0.037570
1580.3912,0.036604
1582.2549,0.036849
1584.1186,0.037281
1585.9822,0.037675
1587.8459,0.037956
1589.7096,0.038389
1591.5733,0.038863
1593.4369,0.039490
1595.3006,0.039961
1597.1643,0.040369
1599.0279,0.040756
1600.8916,0.041436
1602.7553,0.042187
1604.6189,0.042958
1606.4826,0.043701
1608.3463,0.044736
1610.2099,0.045407
1612.0736,0.045763
1613.9373,0.046383
1615.8010,0.048969
1617.6646,0.051567
1619.5283,0.051156
1621.3920,0.051402
1623.2556,0.053767
1625.1193,0.054993
1626.9830,0.055468
1628.8466,0.056100
1630.7103,0.055528
1632.5740,0.055095
1634.4376,0.057124
1636.3013,0.060434
1638.1650,0.059220
1640.0286,0.057343
1641.8923,0.056244
1643.7560,0.055661
1645.6197,0.056555
1647.4833,0.057414
1649.3470,0.055163
1651.2107,0.054023
1653.0743,0.058321
1654.9380,0.057324
1656.8017,0.053250
1658.6653,0.051002
1660.5290,0.049871
1662.3927,0.049335
1664.2563,0.047870
1666.1200,0.045749
1667.9837,0.044818
1669.8474,0.044583
1671.7110,0.043007
1673.5747,0.041325
1675.4384,0.040756
1677.3020,0.038567
1679.1657,0.036206
1681.0294,0.034901
1682.8930,0.034840
1684.7567,0.035733
1686.6204,0.032988
1688.4840,0.030553
1690.3477,0.028772
1692.2114,0.026896
1694.0750,0.025426
1695.9387,0.025955
1697.8024,0.025233
1699.6661,0.025119
1701.5297,0.024724
1703.3934,0.022606
1705.2571,0.021889
1707.1207,0.021155
1708.9844,0.019827
1710.8481,0.018560
1712.7117,0.017684
1714.5754,0.017915
1716.4391,0.018939
1718.3027,0.019515
1720.1664,0.017930
1722.0301,0.016531
1723.8937,0.016070
1725.7574,0.015487
1727.6211,0.014757
1729.4848,0.014556
1731.3484,0.014560
1733.2121,0.015318
1735.0758,0.016215
1736.9394,0.014640
1738.8031,0.014057
1740.6668,0.014222
1742.5304,0.013922
1744.3941,0.013561
1746.2578,0.013434
1748.1214,0.013657
1749.9851,0.013974
1751.8488,0.013926
1753.7125,0.013000
1755.5761,0.012467
1757.4398,0.012750
1759.3035,0.012513
1761.1671,0.012592
1763.0308,0.012558
1764.8945,0.011792
1766.7581,0.011343
1768.6218,0.011563
1770.4855,0.011810
1772.3491,0.012809
1774.2128,0.012596
1776.0765,0.011748
1777.9401,0.011293
1779.8038,0.011572
1781.6675,0.011715
1783.5312,0.011398
1785.3948,0.011111
1787.2585,0.010734
1789.1222,0.010481
1790.9858,0.011075
1792.8495,0.011881
1794.7132,0.011448
1796.5768,0.010776
1798.4405,0.010687
1800.3042,0.011074
1802.1678,0.011153
1804.0315,0.010702
1805.8952,0.010343
1807.7589,0.010216
1809.6225,0.010314
1811.4862,0.010415
1813.3499,0.010095
1815.2135,0.009656
1817.0772,0.009620
1818.9409,0.009798
1820.8045,0.009827
1822.6682,0.009709
1824.5319,0.009950
1826.3955,0.010190
1828.2592,0.010246
1830.1229,0.010603
1831.9865,0.010386
1833.8502,0.009956
1835.7139,0.009811
1837.5776,0.009690
1839.4412,0.009520
1841.3049,0.009405
1843.1686,0.009945
1845.0322,0.010725
1846.8959,0.010426
1848.7596,0.010037
1850.6232,0.009822
1852.4869,0.009809
1854.3506,0.009845
1856.2142,0.009816
1858.0779,0.009710
1859.9416,0.009574
1861.8052,0.009397
1863.6689,0.009357
1865.5326,0.009403
1867.3963,0.009814
1869.2599,0.010490
1871.1236,0.010339
1872.9873,0.009795
1874.8509,0.009620
1876.7146,0.009602
1878.5783,0.009466
1880.4419,0.009373
1882.3056,0.009367
1884.1693,0.009262
1886.0329,0.009117
1887.8966,0.009280
1889.7603,0.009869
1891.6240,0.009851
1893.4876,0.009557
1895.3513,0.009628
1897.2150,0.009563
1899.0786,0.009366
1900.9423,0.009138
1902.8060,0.009006
1904.6696,0.009028
1906.5333,0.009095
1908.3970,0.009349
1910.2606,0.009414
1912.1243,0.009146
1913.9880,0.008988
1915.8516,0.009135
1917.7153,0.009592
1919.5790,0.009618
1921.4427,0.009354
1923.3063,0.009296
1925.1700,0.009208
1927.0337,0.009104
1928.8973,0.009076
1930.7610,0.009051
1932.6247,0.008822
1934.4883,0.008706
1936.3520,0.008764
1938.2157,0.008962
1940.0793,0.009038
1941.9430,0.009167
1943.8067,0.009267
1945.6704,0.008885
1947.5340,0.008490
1949.3977,0.008446
1951.2614,0.008504
1953.1250,0.008273
1954.9887,0.008378
1956.8524,0.008700
1958.7160,0.008296
1960.5797,0.008279
1962.4434,0.008660
1964.3070,0.008769
1966.1707,0.009044
1968.0344,0.009266
1969.8980,0.008778
1971.7617,0.008059
1973.6254,0.008230
1975.4891,0.009239
1977.3527,0.010496
1979.2164,0.011772
1981.0801,0.012100
1982.9437,0.011716
1984.8074,0.011548
1986.6711,0.011210
1988.5347,0.010282
1990.3984,0.009990
1992.2621,0.010320
1994.1257,0.010407
1995.9894,0.010158
1997.8531,0.009747
1999.7167,0.009510
2001.5804,0.009153
2003.4441,0.008987
2005.3078,0.009217
2007.1714,0.009562
2009.0351,0.010080
2010.8988,0.010047
2012.7624,0.009877
2014.6261,0.010001
2016.4898,0.009886
2018.3534,0.009504
2020.2171,0.009216
2022.0808,0.009276
2023.9444,0.010176
2025.8081,0.010916
2027.6718,0.010695
2029.5355,0.010476
2031.3991,0.010783
2033.2628,0.011314
2035.1265,0.011597
2036.9901,0.011805
2038.8538,0.012133
2040.7175,0.011969
2042.5811,0.011635
2044.4448,0.011535
2046.3085,0.011799
2048.1721,0.012269
2050.0358,0.012952
2051.8995,0.013108
2053.7631,0.012644
2055.6268,0.012170
2057.4905,0.011562
2059.3542,0.011365
2061.2178,0.011748
2063.0815,0.012025
2064.9452,0.012149
2066.8088,0.012320
2068.6725,0.012531
2070.5362,0.012465
2072.3998,0.012163
2074.2635,0.012088
2076.1272,0.012344
2077.9908,0.012573
2079.8545,0.012316
2081.7182,0.012066
2083.5819,0.012142
2085.4455,0.011920
2087.3092,0.011787
2089.1729,0.011646
2091.0365,0.011217
2092.9002,0.011046
2094.7639,0.011454
2096.6275,0.011838
2098.4912,0.011881
2100.3549,0.012013
2102.2185,0.012051
2104.0822,0.011887
2105.9459,0.011989
2107.8095,0.012188
2109.6732,0.012076
2111.5369,0.011757
2113.4006,0.011670
2115.2642,0.011722
2117.1279,0.011368
2118.9916,0.010839
2120.8552,0.010471
2122.7189,0.010182
2124.5826,0.009963
2126.4462,0.009355
2128.3099,0.008817
2130.1736,0.008689
2132.0372,0.008487
2133.9009,0.008694
2135.7646,0.009517
2137.6282,0.009632
2139.4919,0.009190
2141.3556,0.008949
2143.2193,0.009245
2145.0829,0.009513
2146.9466,0.009206
2148.8103,0.008879
2150.6739,0.008721
2152.5376,0.007894
2154.4013,0.007310
2156.2649,0.007741
2158.1286,0.009336
2159.9923,0.011901
2161.8559,0.013473
2163.7196,0.013377
2165.5833,0.012947
2167.4470,0.012415
2169.3106,0.012042
2171.1743,0.011590
2173.0380,0.011265
2174.9016,0.011083
2176.7653,0.011398
2178.6290,0.011307
2180.4926,0.011183
2182.3563,0.011577
2184.2200,0.011966
2186.0836,0.011818
2187.9473,0.011584
2189.8110,0.011822
2191.6746,0.012015
2193.5383,0.011761
2195.4020,0.011515
2197.2657,0.011372
2199.1293,0.011055
2200.9930,0.010496
2202.8567,0.010761
2204.7203,0.011366
2206.5840,0.011145
2208.4477,0.010670
2210.3113,0.010752
2212.1750,0.010951
2214.0387,0.010961
2215.9023,0.010834
2217.7660,0.010976
2219.6297,0.011123
2221.4934,0.011346
2223.3570,0.011232
2225.2207,0.010849
2227.0844,0.010830
2228.9480,0.010967
2230.8117,0.010829
2232.6754,0.010671
2234.5390,0.010592
2236.4027,0.010704
2238.2664,0.010753
2240.1300,0.010731
2241.9937,0.010902
2243.8574,0.011079
2245.7210,0.011002
2247.5847,0.010796
2249.4484,0.010460
2251.3121,0.010230
2253.1757,0.010562
2255.0394,0.011047
2256.9031,0.011212
2258.7667,0.011359
2260.6304,0.011191
2262.4941,0.010748
2264.3577,0.010548
2266.2214,0.010866
2268.0851,0.010936
2269.9487,0.010928
2271.8124,0.011075
2273.6761,0.010995
2275.5397,0.011102
2277.4034,0.011403
2279.2671,0.011424
2281.1308,0.011525
2282.9944,0.011737
2284.8581,0.011884
2286.7218,0.011802
2288.5854,0.011508
2290.4491,0.011363
2292.3128,0.011165
2294.1764,0.010983
2296.0401,0.010886
2297.9038,0.010781
2299.7674,0.010728
2301.6311,0.010632
2303.4948,0.010563
2305.3585,0.010514
2307.2221,0.010754
2309.0858,0.010985
2310.9495,0.011054
2312.8131,0.011019
2314.6768,0.011210
2316.5405,0.011491
2318.4041,0.011733
2320.2678,0.012114
2322.1315,0.012664
2323.9951,0.012615
2325.8588,0.011841
2327.7225,0.010854
2329.5861,0.010558
2331.4498,0.010531
2333.3135,0.010503
2335.1772,0.010452
2337.0408,0.010640
2338.9045,0.010893
2340.7682,0.011082
2342.6318,0.011190
2344.4955,0.011192
2346.3592,0.010833
2348.2228,0.009998
2350.0865,0.009060
2351.9502,0.008899
2353.8138,0.009451
2355.6775,0.010168
2357.5412,0.010861
2359.4049,0.011097
2361.2685,0.010937
2363.1322,0.010896
2364.9959,0.011014
2366.8595,0.010935
2368.7232,0.011017
2370.5869,0.010844
2372.4505,0.010491
2374.3142,0.010166
2376.1779,0.009772
2378.0415,0.009514
2379.9052,0.009142
2381.7689,0.008654
2383.6325,0.008111
2385.4962,0.007751
2387.3599,0.007705
2389.2236,0.007784
2391.0872,0.007761
2392.9509,0.007732
2394.8146,0.007677
2396.6782,0.007656
2398.5419,0.007683
2400.4056,0.007598
2402.2692,0.007534
2404.1329,0.007508
2405.9966,0.007622
2407.8602,0.007817
2409.7239,0.007887
2411.5876,0.007950
2413.4512,0.007964
2415.3149,0.007952
2417.1786,0.007912
2419.0423,0.007854
2420.9059,0.007715
2422.7696,0.007712
2424.6333,0.007813
2426.4969,0.007950
2428.3606,0.008047
2430.2243,0.007986
2432.0879,0.007824
2433.9516,0.007954
2435.8153,0.008046
2437.6789,0.008065
2439.5426,0.008105
2441.4063,0.007999
2443.2700,0.008045
2445.1336,0.008092
2446.9973,0.008193
2448.8610,0.008331
2450.7246,0.008223
2452.5883,0.008104
2454.4520,0.008068
2456.3156,0.008124
2458.1793,0.008069
2460.0430,0.007995
2461.9066,0.007949
2463.7703,0.007874
2465.6340,0.007890
2467.4976,0.007844
2469.3613,0.007884
2471.2250,0.007981
2473.0887,0.007764
2474.9523,0.007708
2476.8160,0.007745
2478.6797,0.007766
2480.5433,0.007857
2482.4070,0.007788
2484.2707,0.007695
2486.1343,0.007776
2487.9980,0.007908
2489.8617,0.007797
2491.7253,0.007660
2493.5890,0.007693
2495.4527,0.007794
2497.3164,0.007917
2499.1800,0.007756
2501.0437,0.007678
2502.9074,0.007841
2504.7710,0.007947
2506.6347,0.007823
2508.4984,0.007924
2510.3620,0.007971
2512.2257,0.007806
2514.0894,0.007528
2515.9530,0.007422
2517.8167,0.007551
2519.6804,0.007692
2521.5440,0.007662
2523.4077,0.007680
2525.2714,0.007720
2527.1351,0.007851
2528.9987,0.007879
2530.8624,0.007792
2532.7261,0.007794
2534.5897,0.007805
2536.4534,0.007684
2538.3171,0.007710
2540.1807,0.007813
2542.0444,0.007754
2543.9081,0.007763
2545.7717,0.007848
2547.6354,0.007808
2549.4991,0.007749
2551.3627,0.007671
2553.2264,0.007659
2555.0901,0.007778
2556.9538,0.007943
2558.8174,0.007830
2560.6811,0.007746
2562.5448,0.007857
2564.4084,0.008000
2566.2721,0.008028
2568.1358,0.007931
2569.9994,0.007907
2571.8631,0.007923
2573.7268,0.007936
2575.5904,0.007965
2577.4541,0.007931
2579.3178,0.007963
2581.1815,0.008023
2583.0451,0.008017
2584.9088,0.007996
2586.7725,0.008068
2588.6361,0.008129
2590.4998,0.008198
2592.3635,0.008249
2594.2271,0.008287
2596.0908,0.008282
2597.9545,0.008287
2599.8181,0.008219
2601.6818,0.008262
2603.5455,0.008227
2605.4091,0.008258
2607.2728,0.008351
2609.1365,0.008355
2611.0002,0.008410
2612.8638,0.008584
2614.7275,0.008673
2616.5912,0.008559
2618.4548,0.008496
2620.3185,0.008557
2622.1822,0.008668
2624.0458,0.008678
2625.9095,0.008648
2627.7732,0.008717
2629.6368,0.008782
2631.5005,0.008759
2633.3642,0.008734
2635.2279,0.008786
2637.0915,0.008817
2638.9552,0.008844
2640.8189,0.008865
2642.6825,0.008850
2644.5462,0.008840
2646.4099,0.008797
2648.2735,0.008734
2650.1372,0.008727
2652.0009,0.008700
2653.8645,0.008591
2655.7282,0.008470
2657.5919,0.008488
2659.4555,0.008519
2661.3192,0.008361
2663.1829,0.008069
2665.0466,0.007890
2666.9102,0.007820
2668.7739,0.007824
2670.6376,0.007928
2672.5012,0.007971
2674.3649,0.007886
2676.2286,0.007878
2678.0922,0.007927
2679.9559,0.007998
2681.8196,0.007960
2683.6832,0.007863
2685.5469,0.007855
2687.4106,0.007927
2689.2742,0.007997
2691.1379,0.008072
2693.0016,0.008022
2694.8653,0.007955
2696.7289,0.008015
2698.5926,0.008099
2700.4563,0.008121
2702.3199,0.008086
2704.1836,0.008043
2706.0473,0.008104
2707.9109,0.008158
2709.7746,0.008177
2711.6383,0.008208
2713.5019,0.008291
2715.3656,0.008284
2717.2293,0.008307
2719.0930,0.008290
2720.9566,0.008278
2722.8203,0.008319
2724.6840,0.008326
2726.5476,0.008302
2728.4113,0.008382
2730.2750,0.008456
2732.1386,0.008445
2734.0023,0.008525
2735.8660,0.008618
2737.7296,0.008553
2739.5933,0.008554
2741.4570,0.008604
2743.3206,0.008668
2745.1843,0.008685
2747.0480,0.008692
2748.9117,0.008690
2750.7753,0.008664
2752.6390,0.008659
2754.5027,0.008678
2756.3663,0.008666
2758.2300,0.008789
2760.0937,0.008891
2761.9573,0.008878
2763.8210,0.008871
2765.6847,0.008918
2767.5483,0.008958
2769.4120,0.009032
2771.2757,0.009070
2773.1394,0.009066
2775.0030,0.009066
2776.8667,0.009070
2778.7304,0.009104
2780.5940,0.009094
2782.4577,0.009134
2784.3214,0.009246
2786.1850,0.009326
2788.0487,0.009396
2789.9124,0.009447
2791.7760,0.009464
2793.6397,0.009473
2795.5034,0.009665
2797.3670,0.009714
2799.2307,0.009678
2801.0944,0.009701
2802.9581,0.009771
2804.8217,0.009839
2806.6854,0.009988
2808.5491,0.010035
2810.4127,0.010084
2812.2764,0.010150
2814.1401,0.010139
2816.0037,0.010162
2817.8674,0.010202
2819.7311,0.010240
2821.5947,0.010374
2823.4584,0.010514
2825.3221,0.010567
2827.1857,0.010603
2829.0494,0.010627
2830.9131,0.010687
2832.7768,0.010775
2834.6404,0.010853
2836.5041,0.010948
2838.3678,0.011045
2840.2314,0.011176
2842.0951,0.011247
2843.9588,0.011282
2845.8224,0.011417
2847.6861,0.011556
2849.5498,0.011722
2851.4134,0.011935
2853.2771,0.011988
2855.1408,0.012079
2857.0045,0.012255
2858.8681,0.012387
2860.7318,0.012381
2862.5955,0.012389
2864.4591,0.012441
2866.3228,0.012566
2868.1865,0.012662
2870.0501,0.012732
2871.9138,0.012833
2873.7775,0.012979
2875.6411,0.013012
2877.5048,0.013054
2879.3685,0.013067
2881.2321,0.013206
2883.0958,0.013404
2884.9595,0.013543
2886.8232,0.013534
2888.6868,0.013665
2890.5505,0.013746
2892.4142,0.013750
2894.2778,0.013830
2896.1415,0.013926
2898.0052,0.013973
2899.8688,0.014178
2901.7325,0.014278
2903.5962,0.014288
2905.4598,0.014391
2907.3235,0.014558
2909.1872,0.014726
2911.0509,0.014924
2912.9145,0.014992
2914.7782,0.015153
2916.6419,0.015286
2918.5055,0.015623
2920.3692,0.015986
2922.2329,0.016135
2924.0965,0.016209
2925.9602,0.016386
2927.8239,0.016528
2929.6875,0.016689
2931.5512,0.016752
2933.4149,0.016871
2935.2785,0.016988
2937.1422,0.017044
2939.0059,0.017076
2940.8696,0.017108
2942.7332,0.017034
2944.5969,0.017095
2946.4606,0.017143
2948.3242,0.017235
2950.1879,0.017342
2952.0516,0.017428
2953.9152,0.017426
2955.7789,0.017460
2957.6426,0.017539
2959.5062,0.017741
2961.3699,0.017800
2963.2336,0.017772
2965.0972,0.017748
2966.9609,0.017768
2968.8246,0.017766
2970.6883,0.017817
2972.5519,0.017852
2974.4156,0.017817
2976.2793,0.017814
2978.1429,0.017899
2980.0066,0.017896
2981.8703,0.017838
2983.7339,0.017860
2985.5976,0.018077
2987.4613,0.018102
2989.3249,0.018198
2991.1886,0.018345
2993.0523,0.018385
2994.9160,0.018377
2996.7796,0.018606
2998.6433,0.018763
3000.5070,0.018844
3002.3706,0.018901
3004.2343,0.019124
3006.0980,0.019368
3007.9616,0.019491
3009.8253,0.019557
3011.6890,0.019749
3013.5526,0.020021
3015.4163,0.020272
3017.2800,0.020410
3019.1436,0.020542
3021.0073,0.020706
3022.8710,0.020979
3024.7347,0.021212
3026.5983,0.021402
3028.4620,0.021497
3030.3257,0.021716
3032.1893,0.022056
3034.0530,0.022339
3035.9167,0.022477
3037.7803,0.022606
3039.6440,0.022788
3041.5077,0.023126
3043.3713,0.023431
3045.2350,0.023603
3047.0987,0.023675
3048.9624,0.024016
3050.8260,0.024378
3052.6897,0.024544
3054.5534,0.024670
3056.4170,0.025025
3058.2807,0.025342
3060.1444,0.025670
3062.0080,0.025940
3063.8717,0.026253
3065.7354,0.026537
3067.5990,0.026750
3069.4627,0.026900
3071.3264,0.027207
3073.1900,0.027511
3075.0537,0.027850
3076.9174,0.028140
3078.7811,0.028564
3080.6447,0.028867
3082.5084,0.029077
3084.3721,0.029239
3086.2357,0.029418
3088.0994,0.029746
3089.9631,0.030086
3091.8267,0.030325
3093.6904,0.030727
3095.5541,0.031133
3097.4177,0.031560
3099.2814,0.031799
3101.1451,0.032034
3103.0087,0.032340
3104.8724,0.032707
3106.7361,0.033038
3108.5998,0.033500
3110.4634,0.033798
3112.3271,0.034120
3114.1908,0.034598
3116.0544,0.035132
3117.9181,0.035448
3119.7818,0.035797
3121.6454,0.036054
3123.5091,0.036389
3125.3728,0.036845
3127.2364,0.037385
3129.1001,0.037727
3130.9638,0.038084
3132.8275,0.038625
3134.6911,0.039195
3136.5548,0.039479
3138.4185,0.039913
3140.2821,0.040437
3142.1458,0.040840
3144.0095,0.041244
3145.8731,0.041774
3147.7368,0.042157
3149.6005,0.042626
3151.4641,0.043082
3153.3278,0.043562
3155.1915,0.044141
3157.0551,0.044778
3158.9188,0.045154
3160.7825,0.045620
3162.6462,0.046108
3164.5098,0.046619
3166.3735,0.047081
3168.2372,0.047628
3170.1008,0.048129
3171.9645,0.048650
3173.8282,0.049153
3175.6918,0.049608
3177.5555,0.049984
3179.4192,0.050526
3181.2828,0.051042
3183.1465,0.051621
3185.0102,0.052191
3186.8739,0.052806
3188.7375,0.053182
3190.6012,0.053743
3192.4649,0.054375
3194.3285,0.054977
3196.1922,0.055340
3198.0559,0.055753
3199.9195,0.056359
3201.7832,0.056916
3203.6469,0.057281
3205.5105,0.057669
3207.3742,0.057978
3209.2379,0.058421
3211.1015,0.058996
3212.9652,0.059618
3214.8289,0.059915
3216.6926,0.060278
3218.5562,0.060724
3220.4199,0.061222
3222.2836,0.061601
3224.1472,0.061994
3226.0109,0.062422
3227.8746,0.062783
3229.7382,0.063044
3231.6019,0.063648
3233.4656,0.064098
3235.3292,0.064272
3237.1929,0.064415
3239.0566,0.064941
3240.9202,0.065496
3242.7839,0.065959
3244.6476,0.066280
3246.5113,0.066424
3248.3749,0.066566
3250.2386,0.067038
3252.1023,0.067194
3253.9659,0.067414
3255.8296,0.067978
3257.6933,0.068522
3259.5569,0.068661
3261.4206,0.068734
3263.2843,0.068991
3265.1479,0.069522
3267.0116,0.069783
3268.8753,0.069809
3270.7390,0.069845
3272.6026,0.070140
3274.4663,0.070512
3276.3300,0.070979
3278.1936,0.071468
3280.0573,0.071784
3281.9210,0.071742
3283.7846,0.071900
3285.6483,0.072109
3287.5120,0.072426
3289.3756,0.072788
3291.2393,0.073003
3293.1030,0.073196
3294.9666,0.073629
3296.8303,0.073907
3298.6940,0.074125
3300.5577,0.074310
3302.4213,0.074439
3304.2850,0.074583
3306.1487,0.074860
3308.0123,0.075148
3309.8760,0.075804
3311.7397,0.076141
3313.6033,0.075991
3315.4670,0.076200
3317.3307,0.076705
3319.1943,0.077105
3321.0580,0.077328
3322.9217,0.077330
3324.7854,0.077693
3326.6490,0.078070
3328.5127,0.078213
3330.3764,0.078328
3332.2400,0.078590
3334.1037,0.078741
3335.9674,0.078937
3337.8310,0.079352
3339.6947,0.079765
3341.5584,0.079922
3343.4220,0.080037
3345.2857,0.080275
3347.1494,0.080615
3349.0130,0.080743
3350.8767,0.080831
3352.7404,0.081097
3354.6041,0.081491
3356.4677,0.081808
3358.3314,0.081904
3360.1951,0.081800
3362.0587,0.082000
3363.9224,0.082067
3365.7861,0.082139
3367.6497,0.082460
3369.5134,0.082488
3371.3771,0.082498
3373.2407,0.082689
3375.1044,0.082598
3376.9681,0.082345
3378.8317,0.082284
3380.6954,0.082535
3382.5591,0.082587
3384.4228,0.082421
3386.2864,0.082319
3388.1501,0.082342
3390.0138,0.082171
3391.8774,0.082001
3393.7411,0.082180
3395.6048,0.082247
3397.4684,0.081925
3399.3321,0.081512
3401.1958,0.081458
3403.0594,0.081757
3404.9231,0.081831
3406.7868,0.081354
3408.6505,0.080820
3410.5141,0.080488
3412.3778,0.080335
3414.2415,0.080568
3416.1051,0.080653
3417.9688,0.080245
3419.8325,0.079811
3421.6961,0.079516
3423.5598,0.079290
3425.4235,0.079111
3427.2871,0.078611
3429.1508,0.077807
3431.0145,0.077558
3432.8781,0.077422
3434.7418,0.077094
3436.6055,0.076836
3438.4692,0.076401
3440.3328,0.076012
3442.1965,0.075992
3444.0602,0.075653
3445.9238,0.075038
3447.7875,0.074489
3449.6512,0.074205
3451.5148,0.073641
3453.3785,0.073084
3455.2422,0.072891
3457.1058,0.072462
3458.9695,0.071941
3460.8332,0.071558
3462.6969,0.071119
3464.5605,0.070483
3466.4242,0.069543
3468.2879,0.068744
3470.1515,0.068559
3472.0152,0.068587
3473.8789,0.068258
3475.7425,0.067520
3477.6062,0.066633
3479.4699,0.066025
3481.3335,0.065616
3483.1972,0.065217
3485.0609,0.064616
3486.9245,0.064058
3488.7882,0.063691
3490.6519,0.062989
3492.5156,0.061996
3494.3792,0.061425
3496.2429,0.061174
3498.1066,0.060922
3499.9702,0.060126
3501.8339,0.059339
3503.6976,0.059162
3505.5612,0.059002
3507.4249,0.058149
3509.2886,0.057169
3511.1522,0.056718
3513.0159,0.056298
3514.8796,0.055256
3516.7432,0.054549
3518.6069,0.054242
3520.4706,0.053704
3522.3343,0.053118
3524.1979,0.052962
3526.0616,0.052763
3527.9253,0.052116
3529.7889,0.051241
3531.6526,0.050508
3533.5163,0.049747
3535.3799,0.049119
3537.2436,0.048580
3539.1073,0.047797
3540.9709,0.046845
3542.8346,0.046208
3544.6983,0.045982
3546.5620,0.045807
3548.4256,0.045639
3550.2893,0.045158
3552.1530,0.044206
3554.0166,0.043421
3555.8803,0.042717
3557.7440,0.041940
3559.6076,0.041247
3561.4713,0.040747
3563.3350,0.040181
3565.1986,0.039827
3567.0623,0.039876
3568.9260,0.039871
3570.7896,0.038997
3572.6533,0.037671
3574.5170,0.036801
3576.3807,0.036221
3578.2443,0.035582
3580.1080,0.034865
3581.9717,0.034179
3583.8353,0.033548
3585.6990,0.033200
3587.5627,0.033403
3589.4263,0.033680
3591.2900,0.033008
3593.1537,0.031878
3595.0173,0.031323
3596.8810,0.030871
3598.7447,0.030108
3600.6084,0.029504
3602.4720,0.029168
3604.3357,0.028282
3606.1994,0.027331
3608.0630,0.027105
3609.9267,0.027268
3611.7904,0.026770
3613.6540,0.025849
3615.5177,0.025339
3617.3814,0.024745
3619.2450,0.024507
3621.1087,0.024572
3622.9724,0.023401
3624.8360,0.022029
3626.6997,0.021493
3628.5634,0.021562
3630.4271,0.022383
3632.2907,0.022013
3634.1544,0.020394
3636.0181,0.019515
3637.8817,0.018584
3639.7454,0.017656
3641.6091,0.017093
3643.4727,0.016407
3645.3364,0.015687
3647.2001,0.015275
3649.0637,0.016268
3650.9274,0.016941
3652.7911,0.016295
3654.6547,0.014826
3656.5184,0.013651
3658.3821,0.013615
3660.2458,0.012615
3662.1094,0.011571
3663.9731,0.010987
3665.8368,0.010202
3667.7004,0.009772
3669.5641,0.009979
3671.4278,0.010646
3673.2914,0.010207
3675.1551,0.009194
3677.0188,0.009937
3678.8824,0.009937
3680.7461,0.008511
3682.6098,0.007943
3684.4735,0.007398
3686.3371,0.007174
3688.2008,0.007306
3690.0645,0.008189
3691.9281,0.008285
3693.7918,0.007570
3695.6555,0.006943
3697.5191,0.006472
3699.3828,0.006349
3701.2465,0.006138
3703.1101,0.006237
3704.9738,0.006208
3706.8375,0.005661
3708.7011,0.005483
3710.5648,0.005953
3712.4285,0.006634
3714.2922,0.006558
3716.1558,0.005707
3718.0195,0.005063
3719.8832,0.005038
3721.7468,0.004972
3723.6105,0.005051
3725.4742,0.005170
3727.3378,0.005026
3729.2015,0.005021
3731.0652,0.004561
3732.9288,0.004576
3734.7925,0.005384
3736.6562,0.005798
3738.5199,0.006134
3740.3835,0.005153
3742.2472,0.004290
3744.1109,0.004365
3745.9745,0.005675
3747.8382,0.006140
3749.7019,0.005132
3751.5655,0.006084
3753.4292,0.006644
3755.2929,0.006066
3757.1565,0.004815
3759.0202,0.004659
3760.8839,0.005062
3762.7475,0.005066
3764.6112,0.004578
3766.4749,0.004641
3768.3386,0.004994
3770.2022,0.004716
3772.0659,0.004886
3773.9296,0.004519
3775.7932,0.004080
3777.6569,0.004207
3779.5206,0.004393
3781.3842,0.004795
3783.2479,0.004666
3785.1116,0.004282
3786.9752,0.004256
3788.8389,0.004013
3790.7026,0.003789
3792.5662,0.003590
3794.4299,0.003284
3796.2936,0.003357
3798.1573,0.004090
3800.0209,0.004290
3801.8846,0.004332
3803.7483,0.005384
3805.6119,0.004626
3807.4756,0.003842
3809.3393,0.004376
3811.2029,0.003928
3813.0666,0.003408
3814.9303,0.003484
3816.7939,0.003995
3818.6576,0.004928
3820.5213,0.004214
3822.3850,0.004574
3824.2486,0.005021
3826.1123,0.003930
3827.9760,0.003549
3829.8396,0.003528
3831.7033,0.003486
3833.5670,0.003946
3835.4306,0.003981
3837.2943,0.004075
3839.1580,0.004624
3841.0216,0.004887
3842.8853,0.004365
3844.7490,0.003896
3846.6126,0.003496
3848.4763,0.003019
3850.3400,0.002862
3852.2037,0.003117
3854.0673,0.004580
3855.9310,0.006046
3857.7947,0.004810
3859.6583,0.003703
3861.5220,0.003351
3863.3857,0.003480
3865.2493,0.003872
3867.1130,0.004285
3868.9767,0.004045
3870.8403,0.004250
3872.7040,0.004809
3874.5677,0.003805
3876.4314,0.003813
3878.2950,0.003365
3880.1587,0.002985
3882.0224,0.003878
3883.8860,0.004076
3885.7497,0.003716
3887.6134,0.004369
3889.4770,0.003850
3891.3407,0.003195
3893.2044,0.003943
3895.0680,0.003769
3896.9317,0.003014
3898.7954,0.003019
3900.6590,0.003859
3902.5227,0.004546
3904.3864,0.004651
3906.2501,0.004588
3908.1137,0.004088
3909.9774,0.003507
3911.8411,0.003292
3913.7047,0.003207
3915.5684,0.003186
3917.4321,0.003356
3919.2957,0.003842
3921.1594,0.003963
3923.0231,0.003637
3924.8867,0.003431
3926.7504,0.003674
3928.6141,0.003601
3930.4777,0.003541
3932.3414,0.003668
3934.2051,0.003848
3936.0688,0.003684
3937.9324,0.003420
3939.7961,0.003412
3941.6598,0.003326
3943.5234,0.003347
3945.3871,0.003505
3947.2508,0.003313
3949.1144,0.003418
3950.9781,0.003648
3952.8418,0.003575
3954.7054,0.003406
3956.5691,0.003312
3958.4328,0.003255
3960.2965,0.003170
3962.1601,0.003104
3964.0238,0.003197
3965.8875,0.003301
3967.7511,0.003390
3969.6148,0.003363
3971.4785,0.003306
3973.3421,0.003152
3975.2058,0.003247
3977.0695,0.003496
3978.9331,0.003482
3980.7968,0.003305
3982.6605,0.003284
3984.5241,0.003266
3986.3878,0.003297
3988.2515,0.003182
3990.1152,0.003015
3991.9788,0.003046
3993.8425,0.003287
3995.7062,0.003379
3997.5698,0.003277
3999.4335,0.003244
