Wavenumber,Intensity
650.4205,0.016170
652.2841,0.015871
654.1478,0.016262
656.0115,0.016262
657.8751,0.015607
659.7388,0.015766
661.6025,0.016022
663.4661,0.015366
665.3298,0.014616
667.1935,0.014228
669.0571,0.017092
670.9208,0.016642
672.7845,0.015897
674.6481,0.015781
676.5118,0.015537
678.3755,0.015225
680.2392,0.015019
682.1028,0.015085
683.9665,0.015162
685.8302,0.014815
687.6938,0.014638
689.5575,0.014594
691.4212,0.014676
693.2848,0.014688
695.1485,0.014691
697.0122,0.014748
698.8758,0.014826
700.7395,0.014375
702.6032,0.014068
704.4669,0.014452
706.3305,0.014183
708.1942,0.013801
710.0579,0.013751
711.9215,0.013648
713.7852,0.013569
715.6489,0.013333
717.5125,0.013103
719.3762,0.013012
721.2399,0.012991
723.1035,0.012841
724.9672,0.012856
726.8309,0.012783
728.6945,0.012666
730.5582,0.012599
732.4219,0.012446
734.2856,0.012253
736.1492,0.012270
738.0129,0.012268
739.8766,0.012192
741.7402,0.012226
743.6039,0.012233
745.4676,0.012292
747.3312,0.012327
749.1949,0.012216
751.0586,0.011883
752.9222,0.011946
754.7859,0.011986
756.6496,0.011747
758.5132,0.011539
760.3769,0.011440
762.2406,0.011303
764.1043,0.011400
765.9679,0.011799
767.8316,0.011922
769.6953,0.011711
771.5589,0.011512
773.4226,0.011425
775.2863,0.011262
777.1499,0.011145
779.0136,0.011103
780.8773,0.011011
782.7409,0.010920
784.6046,0.010926
786.4683,0.010804
788.3320,0.010862
790.1956,0.010919
792.0593,0.010827
793.9230,0.010709
795.7866,0.010722
797.6503,0.010780
799.5140,0.010882
801.3776,0.010811
803.2413,0.010790
805.1050,0.010794
806.9686,0.010817
808.8323,0.011002
810.6960,0.011011
812.5596,0.011136
814.4233,0.011243
816.2870,0.011129
818.1507,0.011167
820.0143,0.011256
821.8780,0.011220
823.7417,0.011176
825.6053,0.011261
827.4690,0.011175
829.3327,0.011055
831.1963,0.011099
833.0600,0.011137
834.9237,0.011130
836.7873,0.011177
838.6510,0.011210
840.5147,0.011152
842.3784,0.011036
844.2420,0.010959
846.1057,0.011088
847.9694,0.011199
849.8330,0.011160
851.6967,0.011027
853.5604,0.010928
855.4240,0.010926
857.2877,0.010968
859.1514,0.011002
861.0150,0.010932
862.8787,0.010906
864.7424,0.010988
866.6060,0.011036
868.4697,0.011114
870.3334,0.011174
872.1971,0.011276
874.0607,0.011285
875.9244,0.011255
877.7881,0.011295
879.6517,0.011356
881.5154,0.011449
883.3791,0.011523
885.2427,0.011604
887.1064,0.011695
888.9701,0.011771
890.8337,0.011805
892.6974,0.011747
894.5611,0.011752
896.4247,0.011804
898.2884,0.011811
900.1521,0.011821
902.0158,0.011777
903.8794,0.011747
905.7431,0.011783
907.6068,0.011841
909.4704,0.011908
911.3341,0.012002
913.1978,0.012068
915.0614,0.012053
916.9251,0.012122
918.7888,0.012245
920.6524,0.012290
922.5161,0.012320
924.3798,0.012406
926.2435,0.012439
928.1071,0.012402
929.9708,0.012378
931.8345,0.012381
933.6981,0.012370
935.5618,0.012372
937.4255,0.012454
939.2891,0.012503
941.1528,0.012511
943.0165,0.012574
944.8801,0.012620
946.7438,0.012647
948.6075,0.012735
950.4711,0.012791
952.3348,0.012757
954.1985,0.012739
956.0622,0.012749
957.9258,0.012736
959.7895,0.012805
961.6532,0.012998
963.5168,0.013182
965.3805,0.013315
967.2442,0.013445
969.1078,0.013451
970.9715,0.013434
972.8352,0.013440
974.6988,0.013428
976.5625,0.013493
978.4262,0.013612
980.2899,0.013717
982.1535,0.013840
984.0172,0.014008
985.8809,0.014251
987.7445,0.014451
989.6082,0.014614
991.4719,0.014775
993.3355,0.014951
995.1992,0.015163
997.0629,0.015407
998.9265,0.015614
1000.7902,0.015828
1002.6539,0.016103
1004.5175,0.016302
1006.3812,0.016505
1008.2449,0.016786
1010.1086,0.017127
1011.9722,0.017527
1013.8359,0.017903
1015.6996,0.018273
1017.5632,0.018656
1019.4269,0.019012
1021.2906,0.019374
1023.1542,0.019690
1025.0179,0.019920
1026.8816,0.020215
1028.7452,0.020567
1030.6089,0.020831
1032.4726,0.021056
1034.3362,0.021247
1036.1999,0.021368
1038.0636,0.021497
1039.9273,0.021565
1041.7909,0.021557
1043.6546,0.021551
1045.5183,0.021550
1047.3819,0.021507
1049.2456,0.021458
1051.1093,0.021465
1052.9729,0.021496
1054.8366,0.021540
1056.7003,0.021634
1058.5639,0.021765
1060.4276,0.021881
1062.2913,0.021968
1064.1550,0.022071
1066.0186,0.022207
1067.8823,0.022388
1069.7460,0.022506
1071.6096,0.022545
1073.4733,0.022620
1075.3370,0.022615
1077.2006,0.022539
1079.0643,0.022456
1080.9280,0.022262
1082.7916,0.022054
1084.6553,0.021795
1086.5190,0.021415
1088.3826,0.021080
1090.2463,0.020826
1092.1100,0.020576
1093.9737,0.020300
1095.8373,0.019988
1097.7010,0.019710
1099.5647,0.019463
1101.4283,0.019260
1103.2920,0.019079
1105.1557,0.018915
1107.0193,0.018728
1108.8830,0.018556
1110.7467,0.018399
1112.6103,0.018264
1114.4740,0.018155
1116.3377,0.018020
1118.2014,0.017871
1120.0650,0.017734
1121.9287,0.017543
1123.7924,0.017317
1125.6560,0.017162
1127.5197,0.016992
1129.3834,0.016811
1131.2470,0.016596
1133.1107,0.016388
1134.9744,0.016222
1136.8380,0.016074
1138.7017,0.015963
1140.5654,0.015911
1142.4290,0.015829
1144.2927,0.015692
1146.1564,0.015531
1148.0201,0.015338
1149.8837,0.015176
1151.7474,0.015044
1153.6111,0.014952
1155.4747,0.014938
1157.3384,0.014872
1159.2021,0.014828
1161.0657,0.014820
1162.9294,0.014795
1164.7931,0.014739
1166.6567,0.014646
1168.5204,0.014494
1170.3841,0.014340
1172.2477,0.014201
1174.1114,0.013999
1175.9751,0.013762
1177.8388,0.013599
1179.7024,0.013492
1181.5661,0.013412
1183.4298,0.013421
1185.2934,0.013419
1187.1571,0.013426
1189.0208,0.013449
1190.8844,0.013536
1192.7481,0.013700
1194.6118,0.013844
1196.4754,0.013977
1198.3391,0.014094
1200.2028,0.014207
1202.0665,0.014372
1203.9301,0.014557
1205.7938,0.014722
1207.6575,0.014858
1209.5211,0.014974
1211.3848,0.015105
1213.2485,0.015285
1215.1121,0.015458
1216.9758,0.015620
1218.8395,0.015779
1220.7031,0.015887
1222.5668,0.016018
1224.4305,0.016160
1226.2941,0.016291
1228.1578,0.016434
1230.0215,0.016546
1231.8852,0.016652
1233.7488,0.016705
1235.6125,0.016726
1237.4762,0.016767
1239.3398,0.016761
1241.2035,0.016693
1243.0672,0.016638
1244.9308,0.016586
1246.7945,0.016484
1248.6582,0.016391
1250.5218,0.016298
1252.3855,0.016162
1254.2492,0.016039
1256.1129,0.015930
1257.9765,0.015832
1259.8402,0.015779
1261.7039,0.015699
1263.5675,0.015557
1265.4312,0.015461
1267.2949,0.015423
1269.1585,0.015386
1271.0222,0.015316
1272.8859,0.015241
1274.7495,0.015175
1276.6132,0.015176
1278.4769,0.015193
1280.3405,0.015189
1282.2042,0.015185
1284.0679,0.015148
1285.9316,0.015142
1287.7952,0.015240
1289.6589,0.015317
1291.5226,0.015305
1293.3862,0.015336
1295.2499,0.015420
1297.1136,0.015463
1298.9772,0.015522
1300.8409,0.015632
1302.7046,0.015669
1304.5682,0.015706
1306.4319,0.015818
1308.2956,0.015885
1310.1592,0.015893
1312.0229,0.015923
1313.8866,0.015990
1315.7503,0.015970
1317.6139,0.015916
1319.4776,0.015901
1321.3413,0.015851
1323.2049,0.015724
1325.0686,0.015641
1326.9323,0.015565
1328.7959,0.015494
1330.6596,0.015507
1332.5233,0.015551
1334.3869,0.015537
1336.2506,0.015519
1338.1143,0.015656
1339.9780,0.015989
1341.8416,0.016093
1343.7053,0.015961
1345.5690,0.015885
1347.4326,0.015830
1349.2963,0.015826
1351.1600,0.015843
1353.0236,0.015802
1354.8873,0.015783
1356.7510,0.015727
1358.6146,0.015653
1360.4783,0.015809
1362.3420,0.016292
1364.2056,0.016573
1366.0693,0.016483
1367.9330,0.016602
1369.7967,0.016784
1371.6603,0.016885
1373.5240,0.017285
1375.3877,0.017737
1377.2513,0.017769
1379.1150,0.017849
1380.9787,0.017990
1382.8423,0.018035
1384.7060,0.018101
1386.5697,0.018504
1388.4333,0.018839
1390.2970,0.018626
1392.1607,0.018454
1394.0244,0.018818
1395.8880,0.019389
1397.7517,0.019460
1399.6154,0.019564
1401.4790,0.019302
1403.3427,0.019022
1405.2064,0.019135
1407.0700,0.019002
1408.9337,0.018667
1410.7974,0.018441
1412.6610,0.018079
1414.5247,0.017668
1416.3884,0.017509
1418.2520,0.017881
1420.1157,0.018297
1421.9794,0.017806
1423.8431,0.017463
1425.7067,0.017284
1427.5704,0.017047
1429.4341,0.017177
1431.2977,0.017271
1433.1614,0.017152
1435.0251,0.017390
1436.8887,0.018394
1438.7524,0.018549
1440.6161,0.018052
1442.4797,0.017821
1444.3434,0.017765
1446.2071,0.017907
1448.0707,0.018200
1449.9344,0.018075
1451.7981,0.017567
1453.6618,0.017243
1455.5254,0.017505
1457.3891,0.018776
1459.2528,0.018460
1461.1164,0.017354
1462.9801,0.016854
1464.8438,0.017120
1466.7074,0.016967
1468.5711,0.016242
1470.4348,0.015812
1472.2984,0.016310
1474.1621,0.016554
1476.0258,0.016166
1477.8895,0.015783
1479.7531,0.015460
1481.6168,0.015484
1483.4805,0.015395
1485.3441,0.015316
1487.2078,0.015809
1489.0715,0.016748
1490.9351,0.017516
1492.7988,0.017308
1494.6625,0.017245
1496.5261,0.018335
1498.3898,0.019233
1500.2535,0.019163
1502.1171,0.018867
1503.9808,0.018736
1505.8445,0.020231
1507.7082,0.023404
1509.5718,0.023181
1511.4355,0.022665
1513.2992,0.022803
1515.1628,0.022975
1517.0265,0.023657
1518.8902,0.024012
1520.7538,0.024550
1522.6175,0.025553
1524.4812,0.025359
1526.3448,0.025479
1528.2085,0.025703
1530.0722,0.025593
1531.9359,0.025627
1533.7995,0.026247
1535.6632,0.026034
1537.5269,0.025410
1539.3905,0.026360
1541.2542,0.028066
1543.1179,0.027738
1544.9815,0.027305
1546.8452,0.026584
1548.7089,0.025742
1550.5725,0.025249
1552.4362,0.024452
1554.2999,0.023711
1556.1635,0.023219
1558.0272,0.023548
1559.8909,0.024878
1561.7546,0.023515
1563.6182,0.022093
1565.4819,0.021468
1567.3456,0.021036
1569.2092,0.020818
1571.0729,0.020603
1572.9366,0.019882
1574.8002,0.019581
1576.6639,0.020076
1578.5276,0.019812
1580.3912,0.019116
1582.2549,0.018820
1584.1186,0.018690
1585.9822,0.018557
1587.8459,0.018463
1589.7096,0.018472
1591.5733,0.018413
1593.4369,0.018474
1595.3006,0.018623
1597.1643,0.018665
1599.0279,0.018636
1600.8916,0.018719
1602.7553,0.018974
1604.6189,0.019290
1606.4826,0.019576
1608.3463,0.019948
1610.2099,0.020239
1612.0736,0.020552
1613.9373,0.020938
1615.8010,0.021783
1617.6646,0.023130
1619.5283,0.023466
1621.3920,0.023650
1623.2556,0.024790
1625.1193,0.025798
1626.9830,0.026121
1628.8466,0.026671
1630.7103,0.027044
1632.5740,0.027198
1634.4376,0.027913
1636.3013,0.029581
1638.1650,0.029674
1640.0286,0.028971
1641.8923,0.028601
1643.7560,0.028309
1645.6197,0.028256
1647.4833,0.028818
1649.3470,0.028623
1651.2107,0.027944
1653.0743,0.028809
1654.9380,0.029082
1656.8017,0.027424
1658.6653,0.026103
1660.5290,0.025113
1662.3927,0.024343
1664.2563,0.023552
1666.1200,0.022431
1667.9837,0.021439
1669.8474,0.020930
1671.7110,0.020308
1673.5747,0.019281
1675.4384,0.018581
1677.3020,0.017785
1679.1657,0.016647
1681.0294,0.015753
1682.8930,0.015135
1684.7567,0.015051
1686.6204,0.014119
1688.4840,0.012871
1690.3477,0.011991
1692.2114,0.011178
1694.0750,0.010102
1695.9387,0.009555
1697.8024,0.009166
1699.6661,0.008472
1701.5297,0.008402
1703.3934,0.007747
1705.2571,0.007199
1707.1207,0.006908
1708.9844,0.006457
1710.8481,0.006023
1712.7117,0.005769
1714.5754,0.005915
1716.4391,0.006333
1718.3027,0.006640
1720.1664,0.006488
1722.0301,0.006041
1723.8937,0.005867
1725.7574,0.005710
1727.6211,0.005458
1729.4848,0.005476
1731.3484,0.005648
1733.2121,0.005789
1735.0758,0.006559
1736.9394,0.006291
1738.8031,0.005833
1740.6668,0.005942
1742.5304,0.005905
1744.3941,0.005775
1746.2578,0.005749
1748.1214,0.005797
1749.9851,0.006022
1751.8488,0.006119
1753.7125,0.005830
1755.5761,0.005461
1757.4398,0.005565
1759.3035,0.005568
1761.1671,0.005538
1763.0308,0.005725
1764.8945,0.005538
1766.7581,0.005243
1768.6218,0.005343
1770.4855,0.005431
1772.3491,0.005742
1774.2128,0.005957
1776.0765,0.005687
1777.9401,0.005535
1779.8038,0.005604
1781.6675,0.005721
1783.5312,0.005681
1785.3948,0.005654
1787.2585,0.005532
1789.1222,0.005324
1790.9858,0.005391
1792.8495,0.005774
1794.7132,0.005816
1796.5768,0.005581
1798.4405,0.005488
1800.3042,0.005549
1802.1678,0.005692
1804.0315,0.005680
1805.8952,0.005544
1807.7589,0.005434
1809.6225,0.005405
1811.4862,0.005412
1813.3499,0.005353
1815.2135,0.005169
1817.0772,0.005236
1818.9409,0.005379
1820.8045,0.005276
1822.6682,0.005255
1824.5319,0.005465
1826.3955,0.005572
1828.2592,0.005261
1830.1229,0.005375
1831.9865,0.005625
1833.8502,0.005368
1835.7139,0.005190
1837.5776,0.005179
1839.4412,0.005186
1841.3049,0.005123
1843.1686,0.005289
1845.0322,0.005756
1846.8959,0.005851
1848.7596,0.005614
1850.6232,0.005345
1852.4869,0.005236
1854.3506,0.005369
1856.2142,0.005378
1858.0779,0.005278
1859.9416,0.005141
1861.8052,0.005102
1863.6689,0.005040
1865.5326,0.004938
1867.3963,0.005084
1869.2599,0.005600
1871.1236,0.005742
1872.9873,0.005509
1874.8509,0.005347
1876.7146,0.005192
1878.5783,0.005093
1880.4419,0.005243
1882.3056,0.005199
1884.1693,0.005017
1886.0329,0.005135
1887.8966,0.005178
1889.7603,0.005212
1891.6240,0.005304
1893.4876,0.005089
1895.3513,0.004981
1897.2150,0.005045
1899.0786,0.005116
1900.9423,0.004950
1902.8060,0.004872
1904.6696,0.004953
1906.5333,0.004951
1908.3970,0.004913
1910.2606,0.005072
1912.1243,0.004824
1913.9880,0.004362
1915.8516,0.004530
1917.7153,0.005185
1919.5790,0.005304
1921.4427,0.004929
1923.3063,0.004714
1925.1700,0.004709
1927.0337,0.004508
1928.8973,0.004455
1930.7610,0.004626
1932.6247,0.004525
1934.4883,0.004380
1936.3520,0.004203
1938.2157,0.003898
1940.0793,0.003938
1941.9430,0.004213
1943.8067,0.004484
1945.6704,0.004264
1947.5340,0.003891
1949.3977,0.003411
1951.2614,0.003349
1953.1250,0.003739
1954.9887,0.003775
1956.8524,0.003275
1958.7160,0.003139
1960.5797,0.003178
1962.4434,0.002886
1964.3070,0.002808
1966.1707,0.003148
1968.0344,0.002823
1969.8980,0.002598
1971.7617,0.002614
1973.6254,0.002792
1975.4891,0.003384
1977.3527,0.004038
1979.2164,0.004582
1981.0801,0.005192
1982.9437,0.005287
1984.8074,0.004714
1986.6711,0.004103
1988.5347,0.003996
1990.3984,0.003932
1992.2621,0.004163
1994.1257,0.004497
1995.9894,0.004420
1997.8531,0.003930
1999.7167,0.003454
2001.5804,0.003345
2003.4441,0.003342
2005.3078,0.002405
2007.1714,0.001939
2009.0351,0.002921
2010.8988,0.003814
2012.7624,0.003467
2014.6261,0.003037
2016.4898,0.003030
2018.3534,0.003172
2020.2171,0.003002
2022.0808,0.003017
2023.9444,0.003428
2025.8081,0.003340
2027.6718,0.002909
2029.5355,0.003024
2031.3991,0.003267
2033.2628,0.003630
2035.1265,0.003972
2036.9901,0.004263
2038.8538,0.004660
2040.7175,0.004903
2042.5811,0.004941
2044.4448,0.005301
2046.3085,0.005488
2048.1721,0.006084
2050.0358,0.006634
2051.8995,0.006120
2053.7631,0.005018
2055.6268,0.004736
2057.4905,0.005181
2059.3542,0.005554
2061.2178,0.005546
2063.0815,0.005721
2064.9452,0.006042
2066.8088,0.005902
2068.6725,0.005446
2070.5362,0.005495
2072.3998,0.005718
2074.2635,0.006002
2076.1272,0.006297
2077.9908,0.006172
2079.8545,0.005812
2081.7182,0.005664
2083.5819,0.005830
2085.4455,0.006043
2087.3092,0.005770
2089.1729,0.005548
2091.0365,0.005364
2092.9002,0.005136
2094.7639,0.005364
2096.6275,0.005788
2098.4912,0.005624
2100.3549,0.005413
2102.2185,0.005387
2104.0822,0.005769
2105.9459,0.005963
2107.8095,0.005999
2109.6732,0.006138
2111.5369,0.006099
2113.4006,0.005877
2115.2642,0.005567
2117.1279,0.005138
2118.9916,0.005002
2120.8552,0.005018
2122.7189,0.004903
2124.5826,0.004383
2126.4462,0.004159
2128.3099,0.003963
2130.1736,0.003546
2132.0372,0.003600
2133.9009,0.003886
2135.7646,0.003858
2137.6282,0.003770
2139.4919,0.003459
2141.3556,0.003143
2143.2193,0.003043
2145.0829,0.003046
2146.9466,0.002803
2148.8103,0.002491
2150.6739,0.002403
2152.5376,0.001852
2154.4013,0.001254
2156.2649,0.001605
2158.1286,0.002197
2159.9923,0.003154
2161.8559,0.004403
2163.7196,0.004848
2165.5833,0.004706
2167.4470,0.004570
2169.3106,0.004470
2171.1743,0.004725
2173.0380,0.004885
2174.9016,0.004531
2176.7653,0.004349
2178.6290,0.004595
2180.4926,0.004607
2182.3563,0.004846
2184.2200,0.005228
2186.0836,0.005334
2187.9473,0.005123
2189.8110,0.005353
2191.6746,0.005301
2193.5383,0.004639
2195.4020,0.004801
2197.2657,0.005499
2199.1293,0.005451
2200.9930,0.005427
2202.8567,0.005742
2204.7203,0.005738
2206.5840,0.005608
2208.4477,0.005701
2210.3113,0.005736
2212.1750,0.005776
2214.0387,0.005747
2215.9023,0.005706
2217.7660,0.005587
2219.6297,0.005476
2221.4934,0.005782
2223.3570,0.006517
2225.2207,0.006745
2227.0844,0.006296
2228.9480,0.006010
2230.8117,0.006138
2232.6754,0.006206
2234.5390,0.006397
2236.4027,0.006510
2238.2664,0.006327
2240.1300,0.006227
2241.9937,0.006244
2243.8574,0.006393
2245.7210,0.006527
2247.5847,0.006634
2249.4484,0.006691
2251.3121,0.006602
2253.1757,0.006617
2255.0394,0.006536
2256.9031,0.006490
2258.7667,0.006544
2260.6304,0.006509
2262.4941,0.006613
2264.3577,0.006879
2266.2214,0.006936
2268.0851,0.007049
2269.9487,0.007192
2271.8124,0.007148
2273.6761,0.007139
2275.5397,0.007221
2277.4034,0.007502
2279.2671,0.007800
2281.1308,0.007745
2282.9944,0.007588
2284.8581,0.007595
2286.7218,0.007607
2288.5854,0.007727
2290.4491,0.007711
2292.3128,0.007568
2294.1764,0.007606
2296.0401,0.007502
2297.9038,0.007422
2299.7674,0.007380
2301.6311,0.007335
2303.4948,0.007386
2305.3585,0.007395
2307.2221,0.007414
2309.0858,0.007502
2310.9495,0.007357
2312.8131,0.007233
2314.6768,0.007492
2316.5405,0.007703
2318.4041,0.007717
2320.2678,0.007961
2322.1315,0.008291
2323.9951,0.008201
2325.8588,0.007748
2327.7225,0.007413
2329.5861,0.007430
2331.4498,0.007498
2333.3135,0.007374
2335.1772,0.007280
2337.0408,0.007608
2338.9045,0.008201
2340.7682,0.008254
2342.6318,0.008466
2344.4955,0.008647
2346.3592,0.008236
2348.2228,0.007452
2350.0865,0.006656
2351.9502,0.005943
2353.8138,0.005543
2355.6775,0.005889
2357.5412,0.006651
2359.4049,0.007093
2361.2685,0.007455
2363.1322,0.007874
2364.9959,0.008455
2366.8595,0.008765
2368.7232,0.008915
2370.5869,0.008963
2372.4505,0.008813
2374.3142,0.008629
2376.1779,0.008473
2378.0415,0.008245
2379.9052,0.007753
2381.7689,0.007298
2383.6325,0.007150
2385.4962,0.007097
2387.3599,0.006867
2389.2236,0.006668
2391.0872,0.006660
2392.9509,0.006589
2394.8146,0.006545
2396.6782,0.006536
2398.5419,0.006564
2400.4056,0.006609
2402.2692,0.006562
2404.1329,0.006645
2405.9966,0.006772
2407.8602,0.006890
2409.7239,0.006976
2411.5876,0.006931
2413.4512,0.006905
2415.3149,0.006814
2417.1786,0.006723
2419.0423,0.006770
2420.9059,0.006913
2422.7696,0.006907
2424.6333,0.006743
2426.4969,0.006689
2428.3606,0.006771
2430.2243,0.006794
2432.0879,0.006802
2433.9516,0.006908
2435.8153,0.006987
2437.6789,0.006986
2439.5426,0.006978
2441.4063,0.006997
2443.2700,0.007069
2445.1336,0.007234
2446.9973,0.007289
2448.8610,0.007171
2450.7246,0.007071
2452.5883,0.007026
2454.4520,0.007053
2456.3156,0.007096
2458.1793,0.007035
2460.0430,0.007042
2461.9066,0.007130
2463.7703,0.007222
2465.6340,0.007306
2467.4976,0.007280
2469.3613,0.007335
2471.2250,0.007400
2473.0887,0.007226
2474.9523,0.007027
2476.8160,0.007018
2478.6797,0.007097
2480.5433,0.007153
2482.4070,0.007230
2484.2707,0.007338
2486.1343,0.007294
2487.9980,0.007223
2489.8617,0.007240
2491.7253,0.007264
2493.5890,0.007178
2495.4527,0.007153
2497.3164,0.007365
2499.1800,0.007491
2501.0437,0.007485
2502.9074,0.007499
2504.7710,0.007375
2506.6347,0.007279
2508.4984,0.007324
2510.3620,0.007343
2512.2257,0.007260
2514.0894,0.007233
2515.9530,0.007398
2517.8167,0.007482
2519.6804,0.007285
2521.5440,0.007269
2523.4077,0.007451
2525.2714,0.007497
2527.1351,0.007442
2528.9987,0.007445
2530.8624,0.007562
2532.7261,0.007588
2534.5897,0.007466
2536.4534,0.007441
2538.3171,0.007560
2540.1807,0.007586
2542.0444,0.007591
2543.9081,0.007645
2545.7717,0.007687
2547.6354,0.007777
2549.4991,0.007868
2551.3627,0.007951
2553.2264,0.007810
2555.0901,0.007573
2556.9538,0.007623
2558.8174,0.007824
2560.6811,0.007962
2562.5448,0.008002
2564.4084,0.007925
2566.2721,0.007864
2568.1358,0.007906
2569.9994,0.007826
2571.8631,0.007797
2573.7268,0.007941
2575.5904,0.007979
2577.4541,0.008018
2579.3178,0.008032
2581.1815,0.008026
2583.0451,0.008028
2584.9088,0.007967
2586.7725,0.008062
2588.6361,0.008148
2590.4998,0.008141
2592.3635,0.008235
2594.2271,0.008261
2596.0908,0.008295
2597.9545,0.008323
2599.8181,0.008295
2601.6818,0.008303
2603.5455,0.008295
2605.4091,0.008306
2607.2728,0.008337
2609.1365,0.008353
2611.0002,0.008348
2612.8638,0.008323
2614.7275,0.008295
2616.5912,0.008346
2618.4548,0.008443
2620.3185,0.008480
2622.1822,0.008604
2624.0458,0.008688
2625.9095,0.008576
2627.7732,0.008551
2629.6368,0.008647
2631.5005,0.008685
2633.3642,0.008693
2635.2279,0.008716
2637.0915,0.008812
2638.9552,0.008816
2640.8189,0.008696
2642.6825,0.008650
2644.5462,0.008663
2646.4099,0.008642
2648.2735,0.008688
2650.1372,0.008721
2652.0009,0.008658
2653.8645,0.008627
2655.7282,0.008633
2657.5919,0.008596
2659.4555,0.008541
2661.3192,0.008482
2663.1829,0.008440
2665.0466,0.008415
2666.9102,0.008364
2668.7739,0.008314
2670.6376,0.008301
2672.5012,0.008317
2674.3649,0.008361
2676.2286,0.008417
2678.0922,0.008437
2679.9559,0.008416
2681.8196,0.008470
2683.6832,0.008484
2685.5469,0.008416
2687.4106,0.008422
2689.2742,0.008449
2691.1379,0.008451
2693.0016,0.008498
2694.8653,0.008521
2696.7289,0.008504
2698.5926,0.008500
2700.4563,0.008536
2702.3199,0.008581
2704.1836,0.008594
2706.0473,0.008595
2707.9109,0.008592
2709.7746,0.008619
2711.6383,0.008648
2713.5019,0.008594
2715.3656,0.008604
2717.2293,0.008682
2719.0930,0.008690
2720.9566,0.008704
2722.8203,0.008733
2724.6840,0.008752
2726.5476,0.008799
2728.4113,0.008869
2730.2750,0.008935
2732.1386,0.008927
2734.0023,0.008913
2735.8660,0.008883
2737.7296,0.008816
2739.5933,0.008892
2741.4570,0.009006
2743.3206,0.009036
2745.1843,0.009054
2747.0480,0.009047
2748.9117,0.009040
2750.7753,0.009024
2752.6390,0.009003
2754.5027,0.009063
2756.3663,0.009191
2758.2300,0.009233
2760.0937,0.009134
2761.9573,0.009066
2763.8210,0.009156
2765.6847,0.009311
2767.5483,0.009395
2769.4120,0.009327
2771.2757,0.009233
2773.1394,0.009275
2775.0030,0.009349
2776.8667,0.009347
2778.7304,0.009347
2780.5940,0.009360
2782.4577,0.009407
2784.3214,0.009459
2786.1850,0.009454
2788.0487,0.009448
2789.9124,0.009554
2791.7760,0.009734
2793.6397,0.009764
2795.5034,0.009644
2797.3670,0.009628
2799.2307,0.009687
2801.0944,0.009726
2802.9581,0.009777
2804.8217,0.009792
2806.6854,0.009842
2808.5491,0.009879
2810.4127,0.009826
2812.2764,0.009895
2814.1401,0.010071
2816.0037,0.010170
2817.8674,0.010220
2819.7311,0.010255
2821.5947,0.010238
2823.4584,0.010212
2825.3221,0.010214
2827.1857,0.010284
2829.0494,0.010410
2830.9131,0.010492
2832.7768,0.010559
2834.6404,0.010628
2836.5041,0.010625
2838.3678,0.010732
2840.2314,0.010900
2842.0951,0.011008
2843.9588,0.011194
2845.8224,0.011323
2847.6861,0.011366
2849.5498,0.011455
2851.4134,0.011655
2853.2771,0.011809
2855.1408,0.011832
2857.0045,0.011875
2858.8681,0.011817
2860.7318,0.011678
2862.5955,0.011677
2864.4591,0.011848
2866.3228,0.012021
2868.1865,0.012117
2870.0501,0.012137
2871.9138,0.012112
2873.7775,0.012112
2875.6411,0.012108
2877.5048,0.012081
2879.3685,0.012043
2881.2321,0.011971
2883.0958,0.011878
2884.9595,0.011888
2886.8232,0.011975
2888.6868,0.012058
2890.5505,0.012122
2892.4142,0.012115
2894.2778,0.012077
2896.1415,0.012161
2898.0052,0.012286
2899.8688,0.012385
2901.7325,0.012552
2903.5962,0.012677
2905.4598,0.012787
2907.3235,0.012910
2909.1872,0.012976
2911.0509,0.013057
2912.9145,0.013175
2914.7782,0.013245
2916.6419,0.013442
2918.5055,0.013713
2920.3692,0.013759
2922.2329,0.013683
2924.0965,0.013629
2925.9602,0.013625
2927.8239,0.013653
2929.6875,0.013618
2931.5512,0.013571
2933.4149,0.013512
2935.2785,0.013325
2937.1422,0.013232
2939.0059,0.013179
2940.8696,0.012998
2942.7332,0.012881
2944.5969,0.012819
2946.4606,0.012699
2948.3242,0.012577
2950.1879,0.012605
2952.0516,0.012666
2953.9152,0.012581
2955.7789,0.012443
2957.6426,0.012413
2959.5062,0.012432
2961.3699,0.012378
2963.2336,0.012297
2965.0972,0.012082
2966.9609,0.011787
2968.8246,0.011671
2970.6883,0.011631
2972.5519,0.011503
2974.4156,0.011314
2976.2793,0.011217
2978.1429,0.011168
2980.0066,0.010968
2981.8703,0.010771
2983.7339,0.010697
2985.5976,0.010635
2987.4613,0.010577
2989.3249,0.010578
2991.1886,0.010652
2993.0523,0.010671
2994.9160,0.010553
2996.7796,0.010445
2998.6433,0.010461
3000.5070,0.010462
3002.3706,0.010485
3004.2343,0.010582
3006.0980,0.010593
3007.9616,0.010555
3009.8253,0.010604
3011.6890,0.010717
3013.5526,0.010782
3015.4163,0.010777
3017.2800,0.010740
3019.1436,0.010754
3021.0073,0.010808
3022.8710,0.010848
3024.7347,0.010899
3026.5983,0.010966
3028.4620,0.010964
3030.3257,0.010956
3032.1893,0.011103
3034.0530,0.011194
3035.9167,0.011064
3037.7803,0.011034
3039.6440,0.011156
3041.5077,0.011232
3043.3713,0.011296
3045.2350,0.011343
3047.0987,0.011268
3048.9624,0.011226
3050.8260,0.011303
3052.6897,0.011413
3054.5534,0.011509
3056.4170,0.011456
3058.2807,0.011415
3060.1444,0.011489
3062.0080,0.011553
3063.8717,0.011549
3065.7354,0.011585
3067.5990,0.011634
3069.4627,0.011561
3071.3264,0.011460
3073.1900,0.011381
3075.0537,0.011359
3076.9174,0.011458
3078.7811,0.011680
3080.6447,0.011781
3082.5084,0.011680
3084.3721,0.011627
3086.2357,0.011586
3088.0994,0.011541
3089.9631,0.011513
3091.8267,0.011355
3093.6904,0.011171
3095.5541,0.011193
3097.4177,0.011311
3099.2814,0.011310
3101.1451,0.011286
3103.0087,0.011258
3104.8724,0.011174
3106.7361,0.011257
3108.5998,0.011326
3110.4634,0.011286
3112.3271,0.011323
3114.1908,0.011284
3116.0544,0.011266
3117.9181,0.011445
3119.7818,0.011563
3121.6454,0.011453
3123.5091,0.011437
3125.3728,0.011590
3127.2364,0.011606
3129.1001,0.011478
3130.9638,0.011440
3132.8275,0.011511
3134.6911,0.011585
3136.5548,0.011524
3138.4185,0.011444
3140.2821,0.011574
3142.1458,0.011714
3144.0095,0.011795
3145.8731,0.011766
3147.7368,0.011745
3149.6005,0.011869
3151.4641,0.011932
3153.3278,0.012060
3155.1915,0.012155
3157.0551,0.012034
3158.9188,0.011988
3160.7825,0.012025
3162.6462,0.012033
3164.5098,0.012129
3166.3735,0.012226
3168.2372,0.012352
3170.1008,0.012463
3171.9645,0.012434
3173.8282,0.012448
3175.6918,0.012513
3177.5555,0.012523
3179.4192,0.012570
3181.2828,0.012664
3183.1465,0.012812
3185.0102,0.012897
3186.8739,0.012735
3188.7375,0.012577
3190.6012,0.012639
3192.4649,0.012847
3194.3285,0.013074
3196.1922,0.013080
3198.0559,0.012944
3199.9195,0.012825
3201.7832,0.012776
3203.6469,0.012853
3205.5105,0.013055
3207.3742,0.013197
3209.2379,0.013114
3211.1015,0.013022
3212.9652,0.012984
3214.8289,0.013074
3216.6926,0.013266
3218.5562,0.013340
3220.4199,0.013289
3222.2836,0.013207
3224.1472,0.013218
3226.0109,0.013207
3227.8746,0.013313
3229.7382,0.013528
3231.6019,0.013591
3233.4656,0.013447
3235.3292,0.013282
3237.1929,0.013350
3239.0566,0.013532
3240.9202,0.013581
3242.7839,0.013575
3244.6476,0.013668
3246.5113,0.013884
3248.3749,0.013986
3250.2386,0.013892
3252.1023,0.013995
3253.9659,0.014177
3255.8296,0.014176
3257.6933,0.014244
3259.5569,0.014296
3261.4206,0.014278
3263.2843,0.014295
3265.1479,0.014350
3267.0116,0.014473
3268.8753,0.014521
3270.7390,0.014447
3272.6026,0.014467
3274.4663,0.014530
3276.3300,0.014416
3278.1936,0.014367
3280.0573,0.014580
3281.9210,0.014552
3283.7846,0.014247
3285.6483,0.014197
3287.5120,0.014287
3289.3756,0.014121
3291.2393,0.013993
3293.1030,0.014090
3294.9666,0.014199
3296.8303,0.014188
3298.6940,0.014042
3300.5577,0.013823
3302.4213,0.013812
3304.2850,0.013880
3306.1487,0.013754
3308.0123,0.013529
3309.8760,0.013423
3311.7397,0.013366
3313.6033,0.013258
3315.4670,0.013182
3317.3307,0.013064
3319.1943,0.012887
3321.0580,0.012737
3322.9217,0.012697
3324.7854,0.012656
3326.6490,0.012493
3328.5127,0.012418
3330.3764,0.012486
3332.2400,0.012410
3334.1037,0.012047
3335.9674,0.011780
3337.8310,0.011865
3339.6947,0.011989
3341.5584,0.011912
3343.4220,0.011785
3345.2857,0.011619
3347.1494,0.011533
3349.0130,0.011557
3350.8767,0.011558
3352.7404,0.011451
3354.6041,0.011371
3356.4677,0.011243
3358.3314,0.010930
3360.1951,0.010910
3362.0587,0.011082
3363.9224,0.010995
3365.7861,0.010928
3367.6497,0.011030
3369.5134,0.010931
3371.3771,0.010742
3373.2407,0.010726
3375.1044,0.010655
3376.9681,0.010401
3378.8317,0.010142
3380.6954,0.010228
3382.5591,0.010473
3384.4228,0.010497
3386.2864,0.010487
3388.1501,0.010305
3390.0138,0.009940
3391.8774,0.009796
3393.7411,0.009864
3395.6048,0.009930
3397.4684,0.009897
3399.3321,0.009747
3401.1958,0.009575
3403.0594,0.009537
3404.9231,0.009526
3406.7868,0.009498
3408.6505,0.009451
3410.5141,0.009463
3412.3778,0.009538
3414.2415,0.009526
3416.1051,0.009491
3417.9688,0.009404
3419.8325,0.009237
3421.6961,0.009175
3423.5598,0.009167
3425.4235,0.009033
3427.2871,0.008967
3429.1508,0.008973
3431.0145,0.008888
3432.8781,0.008823
3434.7418,0.008814
3436.6055,0.008924
3438.4692,0.008968
3440.3328,0.008778
3442.1965,0.008618
3444.0602,0.008631
3445.9238,0.008440
3447.7875,0.008225
3449.6512,0.008297
3451.5148,0.008261
3453.3785,0.008255
3455.2422,0.008417
3457.1058,0.008198
3458.9695,0.007888
3460.8332,0.007948
3462.6969,0.007970
3464.5605,0.007941
3466.4242,0.007986
3468.2879,0.007957
3470.1515,0.007924
3472.0152,0.007780
3473.8789,0.007684
3475.7425,0.007552
3477.6062,0.007449
3479.4699,0.007595
3481.3335,0.007604
3483.1972,0.007500
3485.0609,0.007453
3486.9245,0.007312
3488.7882,0.007328
3490.6519,0.007380
3492.5156,0.007268
3494.3792,0.007123
3496.2429,0.006963
3498.1066,0.007036
3499.9702,0.007079
3501.8339,0.006775
3503.6976,0.006678
3505.5612,0.006887
3507.4249,0.006967
3509.2886,0.006869
3511.1522,0.006997
3513.0159,0.007112
3514.8796,0.006841
3516.7432,0.006708
3518.6069,0.006702
3520.4706,0.006329
3522.3343,0.006027
3524.1979,0.006055
3526.0616,0.006253
3527.9253,0.006335
3529.7889,0.006260
3531.6526,0.006170
3533.5163,0.005880
3535.3799,0.005612
3537.2436,0.005812
3539.1073,0.006167
3540.9709,0.006191
3542.8346,0.005970
3544.6983,0.005773
3546.5620,0.005901
3548.4256,0.006143
3550.2893,0.005739
3552.1530,0.005292
3554.0166,0.005578
3555.8803,0.005736
3557.7440,0.005267
3559.6076,0.005022
3561.4713,0.005108
3563.3350,0.005013
3565.1986,0.004779
3567.0623,0.005100
3568.9260,0.005841
3570.7896,0.005909
3572.6533,0.005424
3574.5170,0.005099
3576.3807,0.004899
3578.2443,0.004696
3580.1080,0.004651
3581.9717,0.004572
3583.8353,0.004531
3585.6990,0.004697
3587.5627,0.004809
3589.4263,0.005192
3591.2900,0.005324
3593.1537,0.004937
3595.0173,0.004869
3596.8810,0.005258
3598.7447,0.005299
3600.6084,0.004788
3602.4720,0.004684
3604.3357,0.004831
3606.1994,0.004500
3608.0630,0.004222
3609.9267,0.004541
3611.7904,0.004871
3613.6540,0.004674
3615.5177,0.004403
3617.3814,0.004157
3619.2450,0.004126
3621.1087,0.004758
3622.9724,0.004887
3624.8360,0.004279
3626.6997,0.003852
3628.5634,0.003870
3630.4271,0.004808
3632.2907,0.005291
3634.1544,0.004706
3636.0181,0.004487
3637.8817,0.004442
3639.7454,0.004256
3641.6091,0.004034
3643.4727,0.003829
3645.3364,0.003673
3647.2001,0.003370
3649.0637,0.003931
3650.9274,0.005238
3652.7911,0.005540
3654.6547,0.004800
3656.5184,0.004239
3658.3821,0.004403
3660.2458,0.004337
3662.1094,0.003988
3663.9731,0.003767
3665.8368,0.003643
3667.7004,0.003512
3669.5641,0.003568
3671.4278,0.004297
3673.2914,0.004697
3675.1551,0.004170
3677.0188,0.004532
3678.8824,0.005037
3680.7461,0.004545
3682.6098,0.004282
3684.4735,0.003874
3686.3371,0.003646
3688.2008,0.003928
3690.0645,0.004516
3691.9281,0.005050
3693.7918,0.005035
3695.6555,0.004640
3697.5191,0.004408
3699.3828,0.004358
3701.2465,0.004186
3703.1101,0.004306
3704.9738,0.004484
3706.8375,0.004147
3708.7011,0.003944
3710.5648,0.004309
3712.4285,0.004656
3714.2922,0.004820
3716.1558,0.004770
3718.0195,0.004469
3719.8832,0.004199
3721.7468,0.004008
3723.6105,0.004070
3725.4742,0.004420
3727.3378,0.004424
3729.2015,0.004274
3731.0652,0.004226
3732.9288,0.004449
3734.7925,0.004599
3736.6562,0.004866
3738.5199,0.005362
3740.3835,0.004875
3742.2472,0.004215
3744.1109,0.003997
3745.9745,0.004699
3747.8382,0.005454
3749.7019,0.004829
3751.5655,0.004997
3753.4292,0.005563
3755.2929,0.005336
3757.1565,0.004738
3759.0202,0.004632
3760.8839,0.004930
3762.7475,0.004776
3764.6112,0.004476
3766.4749,0.004477
3768.3386,0.004656
3770.2022,0.004577
3772.0659,0.004826
3773.9296,0.004871
3775.7932,0.004522
3777.6569,0.004373
3779.5206,0.004325
3781.3842,0.004552
3783.2479,0.004570
3785.1116,0.004395
3786.9752,0.004549
3788.8389,0.004354
3790.7026,0.004062
3792.5662,0.004172
3794.4299,0.004241
3796.2936,0.004098
3798.1573,0.004265
3800.0209,0.004342
3801.8846,0.004236
3803.7483,0.004949
3805.6119,0.005041
3807.4756,0.004534
3809.3393,0.004732
3811.2029,0.004550
3813.0666,0.003978
3814.9303,0.003833
3816.7939,0.004145
3818.6576,0.004750
3820.5213,0.004452
3822.3850,0.004596
3824.2486,0.005078
3826.1123,0.004458
3827.9760,0.004298
3829.8396,0.004358
3831.7033,0.004032
3833.5670,0.004124
3835.4306,0.004353
3837.2943,0.004311
3839.1580,0.004615
3841.0216,0.005054
3842.8853,0.004939
3844.7490,0.004632
3846.6126,0.004505
3848.4763,0.004134
3850.3400,0.003860
3852.2037,0.003893
3854.0673,0.004552
3855.9310,0.005555
3857.7947,0.005391
3859.6583,0.004620
3861.5220,0.004183
3863.3857,0.004248
3865.2493,0.004559
3867.1130,0.004758
3868.9767,0.004636
3870.8403,0.004628
3872.7040,0.005108
3874.5677,0.004871
3876.4314,0.004622
3878.2950,0.004326
3880.1587,0.004073
3882.0224,0.004475
3883.8860,0.004483
3885.7497,0.004229
3887.6134,0.004536
3889.4770,0.004554
3891.3407,0.004172
3893.2044,0.004493
3895.0680,0.004829
3896.9317,0.004469
3898.7954,0.004160
3900.6590,0.004471
3902.5227,0.005003
3904.3864,0.004861
3906.2501,0.004849
3908.1137,0.004945
3909.9774,0.004634
3911.8411,0.004320
3913.7047,0.004258
3915.5684,0.004308
3917.4321,0.004460
3919.2957,0.004651
3921.1594,0.004678
3923.0231,0.004586
3924.8867,0.004535
3926.7504,0.004657
3928.6141,0.004771
3930.4777,0.004581
3932.3414,0.004577
3934.2051,0.004725
3936.0688,0.004685
3937.9324,0.004458
3939.7961,0.004337
3941.6598,0.004341
3943.5234,0.004435
3945.3871,0.004685
3947.2508,0.004699
3949.1144,0.004472
3950.9781,0.004577
3952.8418,0.004539
3954.7054,0.004294
3956.5691,0.004341
3958.4328,0.004622
3960.2965,0.004684
3962.1601,0.004559
3964.0238,0.004455
3965.8875,0.004453
3967.7511,0.004403
3969.6148,0.004230
3971.4785,0.004406
3973.3421,0.004726
3975.2058,0.004749
3977.0695,0.004684
3978.9331,0.004662
3980.7968,0.004569
3982.6605,0.004490
3984.5241,0.004532
3986.3878,0.004573
3988.2515,0.004497
3990.1152,0.004533
3991.9788,0.004738
3993.8425,0.004561
3995.7062,0.004377
3997.5698,0.004414
3999.4335,0.004515
